time;ax;ay;az;I;Gain;Latitude;Longitude;Speed
0,453024;-0,085;0,1014;0,0527;28532,5918;61,1873;50,26523786;10,9535381;0
0,45721;-0,085;0,1014;0,0527;28532,5918;61,1873;50,26523786;10,9535381;0
0,46132;-0,1561;0,0958;0,0471;28532,5918;61,1873;50,26523786;10,9535381;0
0,518474;-0,1561;0,0958;0,0471;28532,5918;61,1873;50,26523786;10,9535381;0
0,520955;-0,1561;0,0958;0,0471;28532,5918;61,1873;50,26523783;10,95353808;0
0,524312;-0,1757;0,0403;0,0076;28532,5918;61,1873;50,26523783;10,95353808;0
0,585295;-0,1757;0,0403;0,0076;28532,5918;61,1873;50,26523783;10,95353808;0
0,589055;-0,1757;0,0403;0,0076;28532,5918;61,1873;50,26523783;10,95353808;0
0,592637;-0,2582;0,001;0,0941;28532,5918;61,1873;50,26523783;10,95353808;0
0,650185;-0,2582;0,001;0,0941;28532,5918;61,1873;50,26523783;10,95353808;0
0,653951;-0,2582;0,001;0,0941;28532,5918;61,1873;50,26523783;10,95353808;0
0,656947;-0,4189;-0,0484;0,1703;28532,5918;61,1873;50,26523783;10,95353808;0
0,694974;-0,4189;-0,0484;0,1703;28532,5918;61,1873;50,26523783;10,95353808;0
0,699027;-0,4189;-0,0484;0,1703;28532,5918;61,1873;50,26523783;10,95353808;0
0,702361;-0,5527;0,0716;-0,0765;28532,5918;61,1873;50,26523783;10,95353808;0
0,750984;-0,5527;0,0716;-0,0765;28532,5918;65,9315;50,26523783;10,95353808;0
0,753254;-0,5527;0,0716;-0,0765;28532,5918;65,9315;50,26523783;10,95353808;0
0,754824;-0,2612;0,1913;-0,2174;28532,5918;65,9315;50,26523783;10,95353808;0
0,770769;-0,2612;0,1913;-0,2174;28862,9219;65,9315;50,26523783;10,95353808;0
0,816751;-0,2612;0,1913;-0,2174;28862,9219;65,9315;50,26523783;10,95353808;0
0,8201;-0,2612;0,1913;-0,2174;28862,9219;65,9315;50,26523783;10,95353808;0
0,822803;0,2451;0,5014;-0,6031;28862,9219;65,9315;50,26523783;10,95353808;0
0,882056;0,2451;0,5014;-0,6031;28862,9219;65,9315;50,26523783;10,95353808;0
0,885375;0,2451;0,5014;-0,6031;28862,9219;65,9315;50,26523783;10,95353808;0
0,888357;0,4179;0,5717;-0,5474;28862,9219;65,9315;50,26523783;10,95353808;0
0,948397;0,4179;0,5717;-0,5474;28862,9219;65,9315;50,26523783;10,95353808;0
0,950909;0,4179;0,5717;-0,5474;28862,9219;65,9315;50,26523783;10,95353808;0
0,952629;-0,0201;0,7003;-0,1713;28862,9219;65,9315;50,26523783;10,95353808;0
0,975373;-0,0201;0,7003;-0,1713;28359,5117;65,9315;50,26523783;10,95353808;0
1,013202;-0,2772;0,3657;0,3861;28359,5117;65,9315;50,26523783;10,95353808;0
1,016128;-0,2772;0,3657;0,3861;28359,5117;65,9315;50,26523783;10,95353808;0
1,018185;-0,2772;0,3657;0,3861;28359,5117;65,9315;50,26523783;10,95353808;0
1,08005;-0,2772;0,3657;0,3861;27628,416;66,6173;50,26523783;10,95353808;0
1,085802;-0,2772;0,3657;0,3861;27628,416;66,6173;50,26523783;10,95353808;0
1,088953;-0,2772;0,3657;0,3861;27628,416;66,6173;50,26523783;10,95353808;0
1,092722;-0,787;0,616;-0,1258;27628,416;66,6173;50,26523783;10,95353808;0
1,143806;-0,787;0,616;-0,1258;27628,416;66,6173;50,26523783;10,95353808;0
1,145628;-0,787;0,616;-0,1258;27628,416;66,6173;50,26523783;10,95353808;0
1,147397;-0,8378;0,928;-0,7186;27628,416;66,6173;50,26523783;10,95353808;0
1,184534;-0,8378;0,928;-0,7186;26985,7715;66,6173;50,26523783;10,95353808;0
1,211138;-0,8378;0,928;-0,7186;26985,7715;66,6173;50,26523783;10,95353808;0
1,214244;-0,8378;0,928;-0,7186;26985,7715;66,6173;50,26523783;10,95353808;0
1,216826;-0,5528;0,5837;-0,4761;26985,7715;66,6173;50,26523783;10,95353808;0
1,275733;-0,5528;0,5837;-0,4761;26985,7715;66,6173;50,26523783;10,95353808;0
1,279147;-0,5528;0,5837;-0,4761;26985,7715;66,6173;50,26523783;10,95353808;0
1,281149;-0,3387;0,3938;0,1126;26985,7715;66,6173;50,26523783;10,95353808;0
1,283815;-0,3387;0,3938;0,1126;26388,4492;66,6173;50,26523783;10,95353808;0
1,340414;-0,3387;0,3938;0,1126;26388,4492;65,4474;50,26523783;10,95353808;0
1,343519;-0,3387;0,3938;0,1126;26388,4492;65,4474;50,26523783;10,95353808;0
1,346229;0,6285;0,0042;1,2669;26388,4492;65,4474;50,26523783;10,95353808;0
1,386375;0,6285;0,0042;1,2669;25238,0254;65,4474;50,26523783;10,95353808;0
1,410363;0,6285;0,0042;1,2669;25238,0254;65,4474;50,26523783;10,95353808;0
1,413757;0,7538;0,2663;1,5642;25238,0254;65,4474;50,26523783;10,95353808;0
1,416829;0,7538;0,2663;1,5642;25238,0254;65,4474;50,26523783;10,95353808;0
1,443037;0,7538;0,2663;1,5642;25238,0254;65,4474;50,26523783;10,95353808;0
1,488575;0,7538;0,2663;1,5642;23380,5312;65,4474;50,26523783;10,95353808;0
1,50811;0,7538;0,2663;1,5642;23380,5312;65,4474;50,26523783;10,95353808;0
1,511362;0,7538;0,2663;1,5642;23380,5312;65,4474;50,26523783;10,95353808;0
1,512887;1,0982;0,0423;0,7501;23380,5312;65,4474;50,26523783;10,95353808;0
1,573009;1,0982;0,0423;0,7501;23380,5312;65,4474;50,26523783;10,95353808;0
1,574698;1,0982;0,0423;0,7501;23380,5312;65,4474;50,26523783;10,95353808;0
1,575733;-0,4743;-1,0494;1,5684;23380,5312;65,4474;50,26523783;10,95353808;0
1,588984;-0,4743;-1,0494;1,5684;21591,2871;65,4474;50,26523783;10,95353808;0
1,639311;-0,4743;-1,0494;1,5684;21591,2871;68,385;50,26523783;10,95353808;0
1,641689;-0,4743;-1,0494;1,5684;21591,2871;68,385;50,26523783;10,95353808;0
1,643313;-0,9019;-2,1504;0,5929;21591,2871;68,385;50,26523783;10,95353808;0
1,690975;-0,9019;-2,1504;0,5929;20370,4297;68,385;50,26523783;10,95353808;0
1,706606;-0,7614;-1,2095;-2,5241;20370,4297;68,385;50,26523783;10,95353808;0
1,711242;-0,7614;-1,2095;-2,5241;20370,4297;68,385;50,26523783;10,95353808;0
1,714888;-0,7614;-1,2095;-2,5241;20370,4297;68,385;50,26523783;10,95353808;0
1,7704;-0,7614;-1,2095;-2,5241;20370,4297;68,385;50,26523783;10,95353808;0
1,773295;-0,7614;-1,2095;-2,5241;20370,4297;68,385;50,26523783;10,95353808;0
1,775724;-0,5982;-0,6477;-1,1681;20370,4297;68,385;50,26523783;10,95353808;0
1,794356;-0,5982;-0,6477;-1,1681;19492,4609;68,385;50,26523783;10,95353808;0
1,836504;-0,5982;-0,6477;-1,1681;19492,4609;68,385;50,26523783;10,95353808;0
1,840253;-0,5982;-0,6477;-1,1681;19492,4609;68,385;50,26523783;10,95353808;0
1,843468;-0,5911;-0,1181;-1,4697;19492,4609;68,385;50,26523783;10,95353808;0
1,896316;-0,5911;-0,1181;-1,4697;18272,6953;68,385;50,26523783;10,95353808;0
1,903912;-0,5911;-0,1181;-1,4697;18272,6953;68,385;50,26523783;10,95353808;0
1,907517;-0,5911;-0,1181;-1,4697;18272,6953;68,385;50,26523783;10,95353808;0
1,910716;-0,6915;-0,1054;0,1546;18272,6953;68,385;50,26523783;10,95353808;0
1,944071;-0,6915;-0,1054;0,1546;18272,6953;68,8202;50,26523783;10,95353808;0
1,948554;-0,0814;0,4681;-0,6333;18272,6953;68,8202;50,26523783;10,95353808;0
1,997057;-0,0814;0,4681;-0,6333;17064,3965;68,8202;50,26523783;10,95353808;0
2,005028;-0,0814;0,4681;-0,6333;17064,3965;68,8202;50,26523783;10,95353808;0
2,008193;-0,0814;0,4681;-0,6333;17064,3965;68,8202;50,26523783;10,95353808;0
2,010199;-0,2759;1,0046;0,818;17064,3965;68,8202;50,26523783;10,95353808;0
2,070388;-0,2759;1,0046;0,818;17064,3965;68,8202;50,26523783;10,95353808;0
2,075218;-0,2759;1,0046;0,818;17064,3965;68,8202;50,26523783;10,95353808;0
2,078139;1,0844;0,9195;1,5898;17064,3965;68,8202;50,26523783;10,95353808;0
2,102963;1,0844;0,9195;1,5898;16190,251;68,8202;50,26523783;10,95353808;0
2,135027;1,0844;0,9195;1,5898;16190,251;68,8202;50,26523783;10,95353808;0
2,138347;1,0844;0,9195;1,5898;16190,251;68,8202;50,26523783;10,95353808;0
2,140665;0,8097;0,6381;1,3604;16190,251;68,8202;50,26523783;10,95353808;0
2,203817;0,8097;0,6381;1,3604;16190,251;68,8202;50,26523783;10,95353808;0
2,207258;0,8097;0,6381;1,3604;16190,251;68,8202;50,26523783;10,95353808;0
2,21027;0,8097;0,6381;1,3604;15785,665;68,8202;50,26523783;10,95353808;0
2,213302;1,3683;-1,0793;1,631;15785,665;68,8202;50,26523783;10,95353808;0
2,266936;1,3683;-1,0793;1,631;15785,665;69,8612;50,26523783;10,95353808;0
2,270807;1,3683;-1,0793;1,631;15785,665;69,8612;50,26523783;10,95353808;0
2,273727;1,2772;-1,2887;-0,6213;15785,665;69,8612;50,26523783;10,95353808;0
2,305316;1,2772;-1,2887;-0,6213;15624,5947;69,8612;50,26523783;10,95353808;0
2,3316;0,5128;-1,2252;-0,6238;15624,5947;69,8612;50,26523783;10,95353808;0
2,335725;0,5128;-1,2252;-0,6238;15624,5947;69,8612;50,26523783;10,95353808;0
2,338289;0,5128;-1,2252;-0,6238;15624,5947;69,8612;50,26523783;10,95353808;0
2,395609;0,5128;-1,2252;-0,6238;15624,5947;69,8612;50,26523783;10,95353808;0
2,4;0,5128;-1,2252;-0,6238;15624,5947;69,8612;50,26523783;10,95353808;0
2,403199;-0,4287;-0,6768;-1,153;15624,5947;69,8612;50,26523783;10,95353808;0
2,46277;-0,4287;-0,6768;-1,153;15624,5947;69,8612;50,26523783;10,95353808;0
2,466126;-0,4287;-0,6768;-1,153;15624,5947;69,8612;50,26523783;10,95353808;0
2,470914;-0,2274;0,1521;-3,0449;15624,5947;69,8612;50,26523783;10,95353808;0
2,525658;-0,2274;0,1521;-3,0449;15624,5947;69,8612;50,26523783;10,95353808;0
2,527947;-0,2274;0,1521;-3,0449;15624,5947;69,8612;50,26524663;10,95354338;0,81
2,529963;-0,083;0,3585;-1,9942;15624,5947;69,8612;50,26524663;10,95354338;0,81
2,591983;-0,083;0,3585;-1,9942;15624,5947;67,1706;50,26524663;10,95354338;0,81
2,595969;-0,083;0,3585;-1,9942;15624,5947;67,1706;50,26524663;10,95354338;0,81
2,599214;0,0682;0,9332;0,9279;15624,5947;67,1706;50,26524663;10,95354338;0,81
2,658001;0,0682;0,9332;0,9279;15624,5947;67,1706;50,26524663;10,95354338;0,81
2,661494;0,0682;0,9332;0,9279;15624,5947;67,1706;50,26524663;10,95354338;0,81
2,664876;1,6299;1,2097;0,7347;15624,5947;67,1706;50,26524663;10,95354338;0,81
2,695837;1,6299;1,2097;0,7347;15624,5947;67,1706;50,26524663;10,95354338;0,81
2,760041;1,6299;1,2097;0,7347;15624,5947;67,1706;50,26524663;10,95354338;0,81
2,763611;0,9952;1,727;1,4962;15624,5947;67,1706;50,26524663;10,95354338;0,81
2,768553;0,9952;1,727;1,4962;15624,5947;67,1706;50,26524663;10,95354338;0,81
2,815409;0,9952;1,727;1,4962;16184,792;67,1706;50,26524663;10,95354338;0,81
2,826907;0,9952;1,727;1,4962;16184,792;70,6182;50,26524663;10,95354338;0,81
2,830345;0,9952;1,727;1,4962;16184,792;70,6182;50,26524663;10,95354338;0,81
2,832945;-1,0435;-0,2239;2,7744;16184,792;70,6182;50,26524663;10,95354338;0,81
2,892147;-0,4863;-1,6542;1,5731;16184,792;70,6182;50,26524663;10,95354338;0,81
2,897355;-0,4863;-1,6542;1,5731;16184,792;70,6182;50,26524663;10,95354338;0,81
2,90033;-0,4863;-1,6542;1,5731;16184,792;70,6182;50,26524663;10,95354338;0,81
2,923305;-0,4863;-1,6542;1,5731;16872,2051;70,6182;50,26524663;10,95354338;0,81
2,959415;-0,4863;-1,6542;1,5731;16872,2051;70,6182;50,26524663;10,95354338;0,81
2,963748;-0,4863;-1,6542;1,5731;16872,2051;70,6182;50,26524663;10,95354338;0,81
2,967819;-0,4369;-1,0604;0,157;16872,2051;70,6182;50,26524663;10,95354338;0,81
3,02163;-0,4369;-1,0604;0,157;16872,2051;70,6182;50,26524663;10,95354338;0,81
3,023785;-0,4369;-1,0604;0,157;17586,373;70,6182;50,26524663;10,95354338;0,81
3,025995;-0,4369;-1,0604;0,157;17586,373;70,6182;50,26524663;10,95354338;0,81
3,027837;0,6019;-0,8969;-1,871;17586,373;70,6182;50,26524663;10,95354338;0,81
3,08708;0,6019;-0,8969;-1,871;17586,373;70,6182;50,26524663;10,95354338;0,81
3,089752;-0,329;-0,5107;-1,6806;17586,373;70,6182;50,26524663;10,95354338;0,81
3,092638;-0,329;-0,5107;-1,6806;17586,373;70,6182;50,26524663;10,95354338;0,81
3,124792;-0,329;-0,5107;-1,6806;18124,1836;70,6182;50,26524663;10,95354338;0,81
3,151354;-0,329;-0,5107;-1,6806;18124,1836;68,0469;50,26524663;10,95354338;0,81
3,153641;-0,329;-0,5107;-1,6806;18124,1836;68,0469;50,26524663;10,95354338;0,81
3,155086;-0,8598;0,1726;-1,717;18124,1836;68,0469;50,26524663;10,95354338;0,81
3,193475;-0,8598;0,1726;-1,717;18124,1836;68,0469;50,26524663;10,95354338;0,81
3,196047;-0,2997;1,2073;-1,7738;18124,1836;68,0469;50,26524663;10,95354338;0,81
3,226941;-0,2997;1,2073;-1,7738;18546,2422;68,0469;50,26524663;10,95354338;0,81
3,25529;-0,2997;1,2073;-1,7738;18546,2422;68,0469;50,26524663;10,95354338;0,81
3,258511;-0,2997;1,2073;-1,7738;18546,2422;68,0469;50,26524663;10,95354338;0,81
3,261318;-0,3492;1,0068;0,1897;18546,2422;68,0469;50,26524663;10,95354338;0,81
3,32291;-0,3492;1,0068;0,1897;18546,2422;68,0469;50,26524663;10,95354338;0,81
3,326401;-0,3492;1,0068;0,1897;18546,2422;68,0469;50,26524663;10,95354338;0,81
3,329684;-0,2923;0,2963;2,5018;18546,2422;68,0469;50,26524663;10,95354338;0,81
3,334006;-0,2923;0,2963;2,5018;18810,5078;68,0469;50,26524663;10,95354338;0,81
3,386298;-0,2923;0,2963;2,5018;18810,5078;68,0469;50,26524663;10,95354338;0,81
3,389844;-0,2923;0,2963;2,5018;18810,5078;68,0469;50,26524663;10,95354338;0,81
3,392671;0,3487;-0,2232;2,6498;18810,5078;68,0469;50,26524663;10,95354338;0,81
3,452369;0,3487;-0,2232;2,6498;18810,5078;67,3059;50,26524663;10,95354338;0,81
3,457278;0,3487;-0,2232;2,6498;18810,5078;67,3059;50,26524663;10,95354338;0,81
3,460163;0,2856;-1,9701;2,9515;18810,5078;67,3059;50,26524663;10,95354338;0,81
3,524342;0,2856;-1,9701;2,9515;18810,5078;67,3059;50,26524663;10,95354338;0,81
3,526637;0,2856;-1,9701;2,9515;18810,5078;67,3059;50,2652642;10,95354302;1,44000006
3,52827;1,1001;-1,619;-0,0588;18810,5078;67,3059;50,2652642;10,95354302;1,44000006
3,582437;1,1001;-1,619;-0,0588;18810,5078;67,3059;50,2652642;10,95354302;1,44000006
3,586474;1,1001;-1,619;-0,0588;18810,5078;67,3059;50,2652642;10,95354302;1,44000006
3,589171;0,2563;-0,0763;-3,5354;18810,5078;67,3059;50,2652642;10,95354302;1,44000006
3,635889;0,2563;-0,0763;-3,5354;18574,6348;67,3059;50,2652642;10,95354302;1,44000006
3,647985;0,2563;-0,0763;-3,5354;18574,6348;67,3059;50,2652642;10,95354302;1,44000006
3,651284;0,2563;-0,0763;-3,5354;18574,6348;67,3059;50,2652642;10,95354302;1,44000006
3,65424;0,4779;0,3402;-3,6502;18574,6348;67,3059;50,2652642;10,95354302;1,44000006
3,713258;0,4779;0,3402;-3,6502;18574,6348;67,3059;50,2652642;10,95354302;1,44000006
3,7174;0,4779;0,3402;-3,6502;18574,6348;67,3059;50,2652642;10,95354302;1,44000006
3,720548;-0,5901;0,3621;-2,5836;18574,6348;67,3059;50,2652642;10,95354302;1,44000006
3,778833;-0,5901;0,3621;-2,5836;18574,6348;67,2926;50,2652642;10,95354302;1,44000006
3,783188;-0,5901;0,3621;-2,5836;18574,6348;67,2926;50,2652642;10,95354302;1,44000006
3,785891;0,4602;0,8823;0,0167;18574,6348;67,2926;50,2652642;10,95354302;1,44000006
3,844737;0,4602;0,8823;0,0167;18574,6348;67,2926;50,2652642;10,95354302;1,44000006
3,850396;-1,229;1,747;1,8829;18574,6348;67,2926;50,2652642;10,95354302;1,44000006
3,854926;-1,229;1,747;1,8829;18574,6348;67,2926;50,2652642;10,95354302;1,44000006
3,909066;-1,229;1,747;1,8829;18574,6348;67,2926;50,2652642;10,95354302;1,44000006
3,913099;-1,229;1,747;1,8829;18574,6348;67,2926;50,2652642;10,95354302;1,44000006
3,917351;-0,9185;1,4437;3,9858;18574,6348;67,2926;50,2652642;10,95354302;1,44000006
3,941395;-0,9185;1,4437;3,9858;18806,1387;67,2926;50,2652642;10,95354302;1,44000006
3,947053;-0,9185;1,4437;3,9858;18806,1387;67,2926;50,2652642;10,95354302;1,44000006
4,002874;-0,9185;1,4437;3,9858;18806,1387;67,2926;50,2652642;10,95354302;1,44000006
4,007114;1,0633;0,0488;3,2061;18806,1387;67,2926;50,2652642;10,95354302;1,44000006
4,011118;1,0633;0,0488;3,2061;18806,1387;67,2926;50,2652642;10,95354302;1,44000006
4,067691;1,0633;0,0488;3,2061;18806,1387;71,1157;50,2652642;10,95354302;1,44000006
4,07196;-0,6966;-1,4208;0,1454;18806,1387;71,1157;50,2652642;10,95354302;1,44000006
4,075505;-0,6966;-1,4208;0,1454;18806,1387;71,1157;50,2652642;10,95354302;1,44000006
4,133757;-0,6966;-1,4208;0,1454;18806,1387;71,1157;50,2652642;10,95354302;1,44000006
4,13807;-1,0854;-0,8034;-1,6026;18806,1387;71,1157;50,2652642;10,95354302;1,44000006
4,142044;-1,0854;-0,8034;-1,6026;18806,1387;71,1157;50,2652642;10,95354302;1,44000006
4,145473;-1,0854;-0,8034;-1,6026;18325,6582;71,1157;50,2652642;10,95354302;1,44000006
4,199817;-1,0854;-0,8034;-1,6026;18325,6582;71,1157;50,2652642;10,95354302;1,44000006
4,204649;-1,0854;-0,8034;-1,6026;18325,6582;71,1157;50,2652642;10,95354302;1,44000006
4,207628;-0,0774;-0,4025;-1,9189;18325,6582;71,1157;50,2652642;10,95354302;1,44000006
4,247438;-0,0774;-0,4025;-1,9189;18078,3203;71,1157;50,2652642;10,95354302;1,44000006
4,26627;-0,451;-0,9561;-0,1547;18078,3203;71,1157;50,2652642;10,95354302;1,44000006
4,271041;-0,451;-0,9561;-0,1547;18078,3203;71,1157;50,2652642;10,95354302;1,44000006
4,273914;-0,451;-0,9561;-0,1547;18078,3203;71,1157;50,2652642;10,95354302;1,44000006
4,329997;-0,451;-0,9561;-0,1547;18078,3203;69,6409;50,2652642;10,95354302;1,44000006
4,334402;0,3387;0,1367;-2,8685;18078,3203;69,6409;50,2652642;10,95354302;1,44000006
4,337985;0,3387;0,1367;-2,8685;18078,3203;69,6409;50,2652642;10,95354302;1,44000006
4,395204;0,3387;0,1367;-2,8685;18078,3203;69,6409;50,2652642;10,95354302;1,44000006
4,399866;0,3387;0,1367;-2,8685;18078,3203;69,6409;50,2652642;10,95354302;1,44000006
4,402574;0,457;0,7188;-0,6116;18078,3203;69,6409;50,2652642;10,95354302;1,44000006
4,452937;0,457;0,7188;-0,6116;18811,5977;69,6409;50,2652642;10,95354302;1,44000006
4,461152;0,457;0,7188;-0,6116;18811,5977;69,6409;50,2652642;10,95354302;1,44000006
4,465181;0,457;0,7188;-0,6116;18811,5977;69,6409;50,2652642;10,95354302;1,44000006
4,468825;0,4976;0,4255;2,9363;18811,5977;69,6409;50,2652642;10,95354302;1,44000006
4,525493;0,4976;0,4255;2,9363;18811,5977;69,6409;50,2652642;10,95354302;1,44000006
4,527579;0,4976;0,4255;2,9363;18811,5977;69,6409;50,26527654;10,95354926;1,26999998
4,529131;-0,0574;0,6201;3,1298;18811,5977;69,6409;50,26527654;10,95354926;1,26999998
4,552472;-0,0574;0,6201;3,1298;19538,3262;69,6409;50,26527654;10,95354926;1,26999998
4,590861;-0,0574;0,6201;3,1298;19538,3262;69,6409;50,26527654;10,95354926;1,26999998
4,595083;-0,0574;0,6201;3,1298;19538,3262;69,6409;50,26527654;10,95354926;1,26999998
4,597995;-0,0692;-0,5799;2,3446;19538,3262;69,6409;50,26527654;10,95354926;1,26999998
4,658157;-0,0692;-0,5799;2,3446;19538,3262;72,1752;50,26527654;10,95354926;1,26999998
4,662487;-0,0692;-0,5799;2,3446;20015,5293;72,1752;50,26527654;10,95354926;1,26999998
4,665483;-0,0692;-0,5799;2,3446;20015,5293;72,1752;50,26527654;10,95354926;1,26999998
4,668526;1,8307;-1,1171;-0,2496;20015,5293;72,1752;50,26527654;10,95354926;1,26999998
4,694094;1,8307;-1,1171;-0,2496;20015,5293;72,1752;50,26527654;10,95354926;1,26999998
4,697589;0,8392;-0,6142;-2,8263;20015,5293;72,1752;50,26527654;10,95354926;1,26999998
4,760885;0,8392;-0,6142;-2,8263;20015,5293;72,1752;50,26527654;10,95354926;1,26999998
4,766079;0,8392;-0,6142;-2,8263;20447,9609;72,1752;50,26527654;10,95354926;1,26999998
4,769415;0,8392;-0,6142;-2,8263;20447,9609;72,1752;50,26527654;10,95354926;1,26999998
4,772295;0,1495;-0,2368;-3,7856;20447,9609;72,1752;50,26527654;10,95354926;1,26999998
4,825055;0,1495;-0,2368;-3,7856;20447,9609;72,1752;50,26527654;10,95354926;1,26999998
4,829232;0,1495;-0,2368;-3,7856;20447,9609;72,1752;50,26527654;10,95354926;1,26999998
4,832229;-0,3258;-0,0681;-2,2026;20447,9609;72,1752;50,26527654;10,95354926;1,26999998
4,860981;-0,3258;-0,0681;-2,2026;21313,373;72,1752;50,26527654;10,95354926;1,26999998
4,889458;-0,3258;-0,0681;-2,2026;21313,373;72,1752;50,26527654;10,95354926;1,26999998
4,893453;-0,3258;-0,0681;-2,2026;21313,373;72,1752;50,26527654;10,95354926;1,26999998
4,896269;-0,2458;0,8253;-0,7855;21313,373;72,1752;50,26527654;10,95354926;1,26999998
4,955481;-0,2458;0,8253;-0,7855;21313,373;73,0087;50,26527654;10,95354926;1,26999998
4,961244;-0,2458;0,8253;-0,7855;21313,373;73,0087;50,26527654;10,95354926;1,26999998
4,965466;-0,3027;0,5314;2,1236;21313,373;73,0087;50,26527654;10,95354926;1,26999998
4,969953;-0,3027;0,5314;2,1236;22405,9219;73,0087;50,26527654;10,95354926;1,26999998
5,023313;-0,3027;0,5314;2,1236;22405,9219;73,0087;50,26527654;10,95354926;1,26999998
5,028821;-0,3027;0,5314;2,1236;22405,9219;73,0087;50,26527654;10,95354926;1,26999998
5,032142;-1,6748;0,4813;4,3506;22405,9219;73,0087;50,26527654;10,95354926;1,26999998
5,065335;-1,6748;0,4813;4,3506;22843,2676;73,0087;50,26527654;10,95354926;1,26999998
5,086118;-1,6748;0,4813;4,3506;22843,2676;73,0087;50,26527654;10,95354926;1,26999998
5,090112;-1,3088;-0,4027;1,698;22843,2676;73,0087;50,26527654;10,95354926;1,26999998
5,093777;-1,3088;-0,4027;1,698;22843,2676;73,0087;50,26527654;10,95354926;1,26999998
5,152088;-1,3088;-0,4027;1,698;22843,2676;73,0087;50,26527654;10,95354926;1,26999998
5,156168;-1,3088;-0,4027;1,698;22843,2676;73,0087;50,26527654;10,95354926;1,26999998
5,159478;-1,424;-0,9112;0,7787;22843,2676;73,0087;50,26527654;10,95354926;1,26999998
5,172084;-1,424;-0,9112;0,7787;22087,0566;73,0087;50,26527654;10,95354926;1,26999998
5,193239;-1,424;-0,9112;0,7787;22087,0566;73,0087;50,26527654;10,95354926;1,26999998
5,254618;-1,424;-0,9112;0,7787;22087,0566;72,396;50,26527654;10,95354926;1,26999998
5,259316;-1,424;-0,9112;0,7787;22087,0566;72,396;50,26527654;10,95354926;1,26999998
5,262131;-0,3959;-1,0468;-0,8629;22087,0566;72,396;50,26527654;10,95354926;1,26999998
5,269932;-0,3959;-1,0468;-0,8629;20571,9043;72,396;50,26527654;10,95354926;1,26999998
5,319421;-0,3959;-1,0468;-0,8629;20571,9043;72,396;50,26527654;10,95354926;1,26999998
5,324113;-0,3959;-1,0468;-0,8629;20571,9043;72,396;50,26527654;10,95354926;1,26999998
5,327466;-0,8493;-0,7881;-3,3003;20571,9043;72,396;50,26527654;10,95354926;1,26999998
5,37278;-0,8493;-0,7881;-3,3003;19018,5332;72,396;50,26527654;10,95354926;1,26999998
5,385772;-0,8493;-0,7881;-3,3003;19018,5332;72,396;50,26527654;10,95354926;1,26999998
5,389176;-0,8493;-0,7881;-3,3003;19018,5332;72,396;50,26527654;10,95354926;1,26999998
5,392596;-0,1477;0,2789;-3,7188;19018,5332;72,396;50,26527654;10,95354926;1,26999998
5,450673;-0,1477;0,2789;-3,7188;19018,5332;72,396;50,26527654;10,95354926;1,26999998
5,454527;-0,1477;0,2789;-3,7188;19018,5332;72,396;50,26527654;10,95354926;1,26999998
5,456971;-0,4486;1,3684;-0,7895;19018,5332;72,396;50,26527654;10,95354926;1,26999998
5,470145;-0,4486;1,3684;-0,7895;19018,5332;72,396;50,26527654;10,95354926;1,26999998
5,47555;0,4693;0,7004;4,6435;19018,5332;72,396;50,26527654;10,95354926;1,26999998
5,480063;0,4693;0,7004;4,6435;17774,7422;72,396;50,26527654;10,95354926;1,26999998
5,535598;0,4693;0,7004;4,6435;17774,7422;72,396;50,26527654;10,95354926;1,26999998
5,537478;0,4693;0,7004;4,6435;17774,7422;72,396;50,26528876;10,95355164;1,26999998
5,538938;2,0545;0,3961;3,335;17774,7422;72,396;50,26528876;10,95355164;1,26999998
5,575649;2,0545;0,3961;3,335;16968,8457;73,6253;50,26528876;10,95355164;1,26999998
5,600481;2,0545;0,3961;3,335;16968,8457;73,6253;50,26528876;10,95355164;1,26999998
5,604513;2,0545;0,3961;3,335;16968,8457;73,6253;50,26528876;10,95355164;1,26999998
5,607767;2,2122;0,6922;0,2196;16968,8457;73,6253;50,26528876;10,95355164;1,26999998
5,665479;2,2122;0,6922;0,2196;16968,8457;73,6253;50,26528876;10,95355164;1,26999998
5,670215;2,2122;0,6922;0,2196;16968,8457;73,6253;50,26528876;10,95355164;1,26999998
5,673801;1,0824;-1,5648;0,5972;16968,8457;73,6253;50,26528876;10,95355164;1,26999998
5,682443;1,0824;-1,5648;0,5972;16795,2188;73,6253;50,26528876;10,95355164;1,26999998
5,732017;1,0824;-1,5648;0,5972;16795,2188;73,6253;50,26528876;10,95355164;1,26999998
5,736543;1,0824;-1,5648;0,5972;16795,2188;73,6253;50,26528876;10,95355164;1,26999998
5,740541;2,1899;-1,7195;0,214;16795,2188;73,6253;50,26528876;10,95355164;1,26999998
5,781211;2,1899;-1,7195;0,214;16963,9316;73,6253;50,26528876;10,95355164;1,26999998
5,795579;2,1899;-1,7195;0,214;16963,9316;73,6253;50,26528876;10,95355164;1,26999998
5,799988;0,4703;-0,094;-3,229;16963,9316;73,6253;50,26528876;10,95355164;1,26999998
5,804216;0,4703;-0,094;-3,229;16963,9316;73,6253;50,26528876;10,95355164;1,26999998
5,863244;0,4703;-0,094;-3,229;16963,9316;71,1343;50,26528876;10,95355164;1,26999998
5,86855;0,4703;-0,094;-3,229;16963,9316;71,1343;50,26528876;10,95355164;1,26999998
5,873624;0,2413;0,8032;-6,0737;16963,9316;71,1343;50,26528876;10,95355164;1,26999998
5,883858;0,2413;0,8032;-6,0737;17502,2891;71,1343;50,26528876;10,95355164;1,26999998
5,926463;0,2413;0,8032;-6,0737;17502,2891;71,1343;50,26528876;10,95355164;1,26999998
5,929982;0,2413;0,8032;-6,0737;17502,2891;71,1343;50,26528876;10,95355164;1,26999998
5,932562;-0,0791;0,7949;-3,8446;17502,2891;71,1343;50,26528876;10,95355164;1,26999998
5,96892;-0,0791;0,7949;-3,8446;17502,2891;71,1343;50,26528876;10,95355164;1,26999998
5,987589;-0,0791;0,7949;-3,8446;17995,3281;71,1343;50,26528876;10,95355164;1,26999998
6,028541;-0,0791;0,7949;-3,8446;17995,3281;71,1343;50,26528876;10,95355164;1,26999998
6,032473;-0,0791;0,7949;-3,8446;17995,3281;71,1343;50,26528876;10,95355164;1,26999998
6,035311;-0,2622;1,2462;0,9273;17995,3281;71,1343;50,26528876;10,95355164;1,26999998
6,095317;-0,2622;1,2462;0,9273;17995,3281;71,1343;50,26528876;10,95355164;1,26999998
6,099609;-0,2622;1,2462;0,9273;17995,3281;71,1343;50,26528876;10,95355164;1,26999998
6,103213;-1,4653;1,2887;4,7847;17995,3281;71,1343;50,26528876;10,95355164;1,26999998
6,160435;-1,4653;1,2887;4,7847;17995,3281;73,8545;50,26528876;10,95355164;1,26999998
6,166365;-1,4653;1,2887;4,7847;17995,3281;73,8545;50,26528876;10,95355164;1,26999998
6,169332;-1,2592;0,1473;6,1837;17995,3281;73,8545;50,26528876;10,95355164;1,26999998
6,190519;-1,2592;0,1473;6,1837;17445,5039;73,8545;50,26528876;10,95355164;1,26999998
6,226705;-1,2592;0,1473;6,1837;17445,5039;73,8545;50,26528876;10,95355164;1,26999998
6,231682;-1,2592;0,1473;6,1837;17445,5039;73,8545;50,26528876;10,95355164;1,26999998
6,235009;-0,8908;-1,3089;2,5018;17445,5039;73,8545;50,26528876;10,95355164;1,26999998
6,29195;-0,8908;-1,3089;2,5018;17445,5039;73,8545;50,26528876;10,95355164;1,26999998
6,296529;-0,8908;-1,3089;2,5018;17445,5039;73,8545;50,26528876;10,95355164;1,26999998
6,299762;-1,9097;-0,6689;-0,9679;17445,5039;73,8545;50,26528876;10,95355164;1,26999998
6,303942;-1,9097;-0,6689;-0,9679;16764,0957;73,8545;50,26528876;10,95355164;1,26999998
6,356085;-1,9097;-0,6689;-0,9679;16764,0957;73,8545;50,26528876;10,95355164;1,26999998
6,360067;-1,9097;-0,6689;-0,9679;16764,0957;73,8545;50,26528876;10,95355164;1,26999998
6,364183;1,0439;-0,4445;-1,0245;16764,0957;73,8545;50,26528876;10,95355164;1,26999998
6,395262;1,0439;-0,4445;-1,0245;16258,502;73,8545;50,26528876;10,95355164;1,26999998
6,42141;1,0439;-0,4445;-1,0245;16258,502;73,8545;50,26528876;10,95355164;1,26999998
6,426185;1,0439;-0,4445;-1,0245;16258,502;73,8545;50,26528876;10,95355164;1,26999998
6,429467;1,145;-0,4215;-1,7722;16258,502;73,8545;50,26528876;10,95355164;1,26999998
6,487541;1,145;-0,4215;-1,7722;16258,502;72,8396;50,26528876;10,95355164;1,26999998
6,49156;1,145;-0,4215;-1,7722;16258,502;72,8396;50,26528876;10,95355164;1,26999998
6,494247;0,2796;0,4644;-3,7388;16258,502;72,8396;50,26528876;10,95355164;1,26999998
6,55167;0,2796;0,4644;-3,7388;16258,502;72,8396;50,26528876;10,95355164;1,26999998
6,554667;0,2796;0,4644;-3,7388;16258,502;72,8396;50,26530252;10,95354581;1,35000002
6,556857;-1,366;1,1157;-2,0983;16258,502;72,8396;50,26530252;10,95354581;1,35000002
6,599737;-1,366;1,1157;-2,0983;16652,7129;72,8396;50,26530252;10,95354581;1,35000002
6,6181;-1,366;1,1157;-2,0983;16652,7129;72,8396;50,26530252;10,95354581;1,35000002
6,622482;-1,366;1,1157;-2,0983;16652,7129;72,8396;50,26530252;10,95354581;1,35000002
6,625618;-0,7977;-0,1707;3,1363;16652,7129;72,8396;50,26530252;10,95354581;1,35000002
6,683335;-0,7977;-0,1707;3,1363;16652,7129;72,8396;50,26530252;10,95354581;1,35000002
6,687856;-0,7977;-0,1707;3,1363;16652,7129;72,8396;50,26530252;10,95354581;1,35000002
6,691932;0,6126;-0,6963;3,2885;16652,7129;72,8396;50,26530252;10,95354581;1,35000002
6,710355;0,6126;-0,6963;3,2885;17044,7422;72,8396;50,26530252;10,95354581;1,35000002
6,720914;1,5864;-0,5751;1,5892;17044,7422;72,8396;50,26530252;10,95354581;1,35000002
6,72535;1,5864;-0,5751;1,5892;17044,7422;72,8396;50,26530252;10,95354581;1,35000002
6,78479;1,5864;-0,5751;1,5892;17044,7422;72,0709;50,26530252;10,95354581;1,35000002
6,788894;1,5864;-0,5751;1,5892;17044,7422;72,0709;50,26530252;10,95354581;1,35000002
6,791938;1,1574;-1,5205;1,5271;17044,7422;72,0709;50,26530252;10,95354581;1,35000002
6,852239;1,1574;-1,5205;1,5271;17044,7422;72,0709;50,26530252;10,95354581;1,35000002
6,857952;1,1574;-1,5205;1,5271;17044,7422;72,0709;50,26530252;10,95354581;1,35000002
6,864815;1,9531;-0,7407;-0,8618;17044,7422;72,0709;50,26530252;10,95354581;1,35000002
6,905867;1,9531;-0,7407;-0,8618;16671,8223;72,0709;50,26530252;10,95354581;1,35000002
6,915596;1,9531;-0,7407;-0,8618;16671,8223;72,0709;50,26530252;10,95354581;1,35000002
6,918477;1,9531;-0,7407;-0,8618;16671,8223;72,0709;50,26530252;10,95354581;1,35000002
6,920367;-0,1306;-0,2896;-3,0719;16671,8223;72,0709;50,26530252;10,95354581;1,35000002
6,98442;-0,1306;-0,2896;-3,0719;16671,8223;72,0709;50,26530252;10,95354581;1,35000002
6,988728;-0,1306;-0,2896;-3,0719;16671,8223;72,0709;50,26530252;10,95354581;1,35000002
6,992022;-0,4245;-0,0733;-4,7324;16671,8223;72,0709;50,26530252;10,95354581;1,35000002
7,047213;-0,4245;-0,0733;-4,7324;16671,8223;68,7136;50,26530252;10,95354581;1,35000002
7,052942;-0,4245;-0,0733;-4,7324;16671,8223;68,7136;50,26530252;10,95354581;1,35000002
7,056122;-1,4735;0,785;-3,4389;16671,8223;68,7136;50,26530252;10,95354581;1,35000002
7,112275;-1,4735;0,785;-3,4389;16671,8223;68,7136;50,26530252;10,95354581;1,35000002
7,116446;-1,4735;0,785;-3,4389;16671,8223;68,7136;50,26530252;10,95354581;1,35000002
7,119771;-1,1641;1,1766;2,1425;16671,8223;68,7136;50,26530252;10,95354581;1,35000002
7,178708;-1,1641;1,1766;2,1425;16671,8223;68,7136;50,26530252;10,95354581;1,35000002
7,183166;-0,4426;1,7937;3,842;16671,8223;68,7136;50,26530252;10,95354581;1,35000002
7,187334;-0,4426;1,7937;3,842;16671,8223;68,7136;50,26530252;10,95354581;1,35000002
7,2128;-0,4426;1,7937;3,842;17002,1543;68,7136;50,26530252;10,95354581;1,35000002
7,219159;-0,4426;1,7937;3,842;17002,1543;68,7136;50,26530252;10,95354581;1,35000002
7,280177;-0,4426;1,7937;3,842;17002,1543;68,7136;50,26530252;10,95354581;1,35000002
7,284543;-0,4426;1,7937;3,842;17002,1543;68,7136;50,26530252;10,95354581;1,35000002
7,288003;0,3143;0,3429;4,2992;17002,1543;68,7136;50,26530252;10,95354581;1,35000002
7,347481;0,3143;0,3429;4,2992;17002,1543;74,8757;50,26530252;10,95354581;1,35000002
7,352279;0,3143;0,3429;4,2992;17002,1543;74,8757;50,26530252;10,95354581;1,35000002
7,355367;-0,6122;-1,1085;1,661;17002,1543;74,8757;50,26530252;10,95354581;1,35000002
7,411362;-0,6122;-1,1085;1,661;17002,1543;74,8757;50,26530252;10,95354581;1,35000002
7,41525;-0,6122;-1,1085;1,661;17002,1543;74,8757;50,26530252;10,95354581;1,35000002
7,41819;-1,3276;-0,7637;-0,9851;17002,1543;74,8757;50,26530252;10,95354581;1,35000002
7,42197;-1,3276;-0,7637;-0,9851;16623,7754;74,8757;50,26530252;10,95354581;1,35000002
7,477706;-1,3276;-0,7637;-0,9851;16623,7754;74,8757;50,26530252;10,95354581;1,35000002
7,481778;-1,3276;-0,7637;-0,9851;16623,7754;74,8757;50,26530252;10,95354581;1,35000002
7,484647;-0,0849;-0,1455;-2,7064;16623,7754;74,8757;50,26530252;10,95354581;1,35000002
7,520544;-0,0849;-0,1455;-2,7064;16395;74,8757;50,26530252;10,95354581;1,35000002
7,54062;-0,0849;-0,1455;-2,7064;16395;74,8757;50,26531735;10,95353845;1,5
7,543756;-0,0849;-0,1455;-2,7064;16395;74,8757;50,26531735;10,95353845;1,5
7,545439;-0,9784;-0,3033;-2,5069;16395;74,8757;50,26531735;10,95353845;1,5
7,607327;-0,9784;-0,3033;-2,5069;16395;74,8757;50,26531735;10,95353845;1,5
7,61164;-0,9784;-0,3033;-2,5069;16395;74,8757;50,26531735;10,95353845;1,5
7,614506;-1,2502;0,6031;-3,3689;16395;74,8757;50,26531735;10,95353845;1,5
7,674433;-1,2502;0,6031;-3,3689;16395;74,8511;50,26531735;10,95353845;1,5
7,678605;-0,649;0,1843;1,4026;16395;74,8511;50,26531735;10,95353845;1,5
7,683033;-0,649;0,1843;1,4026;16395;74,8511;50,26531735;10,95353845;1,5
7,738994;-0,649;0,1843;1,4026;16395;74,8511;50,26531735;10,95353845;1,5
7,743188;-0,649;0,1843;1,4026;16395;74,8511;50,26531735;10,95353845;1,5
7,746146;0,8147;-0,5955;3,1391;16395;74,8511;50,26531735;10,95353845;1,5
7,803899;0,8147;-0,5955;3,1391;16395;74,8511;50,26531735;10,95353845;1,5
7,807847;0,8147;-0,5955;3,1391;16395;74,8511;50,26531735;10,95353845;1,5
7,810806;1,3629;-0,7617;3,5428;16395;74,8511;50,26531735;10,95353845;1,5
7,868724;1,3629;-0,7617;3,5428;16395;74,8511;50,26531735;10,95353845;1,5
7,872333;1,3629;-0,7617;3,5428;16395;74,8511;50,26531735;10,95353845;1,5
7,875028;1,0974;-1,7599;3,9718;16395;74,8511;50,26531735;10,95353845;1,5
7,934676;1,0974;-1,7599;3,9718;16395;74,609;50,26531735;10,95353845;1,5
7,938994;1,0974;-1,7599;3,9718;16395;74,609;50,26531735;10,95353845;1,5
7,942527;2,6514;-1,5843;0,2879;16395;74,609;50,26531735;10,95353845;1,5
7,969276;2,6514;-1,5843;0,2879;16395;74,609;50,26531735;10,95353845;1,5
7,97286;1,5739;0,1002;-5,1556;16395;74,609;50,26531735;10,95353845;1,5
8,028133;1,5739;0,1002;-5,1556;16395;74,609;50,26531735;10,95353845;1,5
8,032004;1,5739;0,1002;-5,1556;16395;74,609;50,26531735;10,95353845;1,5
8,034953;-0,7839;-0,2112;-5,0663;16395;74,609;50,26531735;10,95353845;1,5
8,038312;-0,7839;-0,2112;-5,0663;16608,4863;74,609;50,26531735;10,95353845;1,5
8,093204;-0,7839;-0,2112;-5,0663;16608,4863;74,609;50,26531735;10,95353845;1,5
8,097999;-0,7839;-0,2112;-5,0663;16608,4863;74,609;50,26531735;10,95353845;1,5
8,101313;-1,2408;0,9867;-4,5391;16608,4863;74,609;50,26531735;10,95353845;1,5
8,133845;-1,2408;0,9867;-4,5391;17058,3906;74,609;50,26531735;10,95353845;1,5
8,161362;-1,2408;0,9867;-4,5391;17058,3906;74,609;50,26531735;10,95353845;1,5
8,166075;-1,2408;0,9867;-4,5391;17058,3906;74,609;50,26531735;10,95353845;1,5
8,16918;-0,2386;1,4049;1,4222;17058,3906;74,609;50,26531735;10,95353845;1,5
8,226009;-0,2386;1,4049;1,4222;17058,3906;74,609;50,26531735;10,95353845;1,5
8,230267;-0,2386;1,4049;1,4222;17058,3906;74,609;50,26531735;10,95353845;1,5
8,233136;-0,5161;0,518;5,4305;17058,3906;74,609;50,26531735;10,95353845;1,5
8,236876;-0,5161;0,518;5,4305;17723,4199;74,609;50,26531735;10,95353845;1,5
8,29129;0,3114;-0,0398;4,737;17723,4199;74,9802;50,26531735;10,95353845;1,5
8,297272;0,3114;-0,0398;4,737;17723,4199;74,9802;50,26531735;10,95353845;1,5
8,300482;0,3114;-0,0398;4,737;17723,4199;74,9802;50,26531735;10,95353845;1,5
8,338165;0,3114;-0,0398;4,737;18405,9199;74,9802;50,26531735;10,95353845;1,5
8,355156;0,3114;-0,0398;4,737;18405,9199;74,9802;50,26531735;10,95353845;1,5
8,359413;-0,6398;-1,2386;1,0774;18405,9199;74,9802;50,26531735;10,95353845;1,5
8,36315;-0,6398;-1,2386;1,0774;18405,9199;74,9802;50,26531735;10,95353845;1,5
8,421168;-0,6398;-1,2386;1,0774;18405,9199;74,9802;50,26531735;10,95353845;1,5
8,427838;-0,6398;-1,2386;1,0774;18405,9199;74,9802;50,26531735;10,95353845;1,5
8,430421;-2,5472;-0,476;-1,9028;18405,9199;74,9802;50,26531735;10,95353845;1,5
8,440241;-2,5472;-0,476;-1,9028;18898,4121;74,9802;50,26531735;10,95353845;1,5
8,487853;0,5413;0,4352;-2,4687;18898,4121;74,9802;50,26531735;10,95353845;1,5
8,492907;0,5413;0,4352;-2,4687;18898,4121;74,9802;50,26531735;10,95353845;1,5
8,495824;0,5413;0,4352;-2,4687;18898,4121;74,9802;50,26531735;10,95353845;1,5
8,552042;-0,6617;-0,4327;0,1039;18898,4121;74,9802;50,26531735;10,95353845;1,5
8,555033;-0,6617;-0,4327;0,1039;18898,4121;74,9802;50,26533115;10,95352937;1,5
8,556582;-0,6617;-0,4327;0,1039;18898,4121;74,9802;50,26533115;10,95352937;1,5
8,616764;-0,6617;-0,4327;0,1039;18898,4121;71,1782;50,26533115;10,95352937;1,5
8,621833;-0,6617;-0,4327;0,1039;18898,4121;71,1782;50,26533115;10,95352937;1,5
8,624448;-0,03;0,4201;-2,854;18898,4121;71,1782;50,26533115;10,95352937;1,5
8,644567;-0,03;0,4201;-2,854;18706,7656;71,1782;50,26533115;10,95352937;1,5
8,682812;-0,03;0,4201;-2,854;18706,7656;71,1782;50,26533115;10,95352937;1,5
8,688107;-0,03;0,4201;-2,854;18706,7656;71,1782;50,26533115;10,95352937;1,5
8,690968;-0,6471;0,1783;0,0014;18706,7656;71,1782;50,26533115;10,95352937;1,5
8,719433;-0,6471;0,1783;0,0014;18706,7656;71,1782;50,26533115;10,95352937;1,5
8,747506;-0,6471;0,1783;0,0014;18972,123;71,1782;50,26533115;10,95352937;1,5
8,785156;-0,6471;0,1783;0,0014;18972,123;71,1782;50,26533115;10,95352937;1,5
8,790024;-0,6471;0,1783;0,0014;18972,123;71,1782;50,26533115;10,95352937;1,5
8,792957;0,4897;-1,0174;2,6508;18972,123;71,1782;50,26533115;10,95352937;1,5
8,851291;0,4897;-1,0174;2,6508;18972,123;72,764;50,26533115;10,95352937;1,5
8,855545;0,4897;-1,0174;2,6508;19913,4277;72,764;50,26533115;10,95352937;1,5
8,858727;1,0061;-0,7427;2,4454;19913,4277;72,764;50,26533115;10,95352937;1,5
8,862894;1,0061;-0,7427;2,4454;19913,4277;72,764;50,26533115;10,95352937;1,5
8,915647;1,0061;-0,7427;2,4454;19913,4277;72,764;50,26533115;10,95352937;1,5
8,91978;1,0061;-0,7427;2,4454;19913,4277;72,764;50,26533115;10,95352937;1,5
8,922507;1,4717;-0,5499;0,435;19913,4277;72,764;50,26533115;10,95352937;1,5
8,951624;1,4717;-0,5499;0,435;20453,4238;72,764;50,26533115;10,95352937;1,5
8,982497;1,4717;-0,5499;0,435;20453,4238;72,764;50,26533115;10,95352937;1,5
8,988209;1,4717;-0,5499;0,435;20453,4238;72,764;50,26533115;10,95352937;1,5
8,991354;1,3506;-0,9714;-0,204;20453,4238;72,764;50,26533115;10,95352937;1,5
9,047295;1,3506;-0,9714;-0,204;20453,4238;72,764;50,26533115;10,95352937;1,5
9,052281;1,3506;-0,9714;-0,204;20453,4238;72,764;50,26533115;10,95352937;1,5
9,055807;0,4378;-1,1866;-1,0706;20453,4238;72,764;50,26533115;10,95352937;1,5
9,112297;0,4378;-1,1866;-1,0706;20453,4238;72,764;50,26533115;10,95352937;1,5
9,117409;0,4378;-1,1866;-1,0706;20453,4238;72,764;50,26533115;10,95352937;1,5
9,122669;-1,3766;-0,4722;-2,8697;20453,4238;72,764;50,26533115;10,95352937;1,5
9,156992;-1,3766;-0,4722;-2,8697;19409,4688;69,2663;50,26533115;10,95352937;1,5
9,178553;-1,3766;-0,4722;-2,8697;19409,4688;69,2663;50,26533115;10,95352937;1,5
9,183384;-1,3766;-0,4722;-2,8697;19409,4688;69,2663;50,26533115;10,95352937;1,5
9,186627;-1,1369;0,6785;-3,315;19409,4688;69,2663;50,26533115;10,95352937;1,5
9,218714;-1,1369;0,6785;-3,315;19409,4688;69,2663;50,26533115;10,95352937;1,5
9,220903;-0,1888;1,1627;-1,2502;19409,4688;69,2663;50,26533115;10,95352937;1,5
9,258573;-0,1888;1,1627;-1,2502;18761,3672;69,2663;50,26533115;10,95352937;1,5
9,280155;-0,1888;1,1627;-1,2502;18761,3672;69,2663;50,26533115;10,95352937;1,5
9,283421;-0,5793;1,0924;3,2222;18761,3672;69,2663;50,26533115;10,95352937;1,5
9,286456;-0,5793;1,0924;3,2222;18761,3672;69,2663;50,26533115;10,95352937;1,5
9,345815;0,9682;1,8352;3,1308;18761,3672;69,2663;50,26533115;10,95352937;1,5
9,350883;0,9682;1,8352;3,1308;18761,3672;69,2663;50,26533115;10,95352937;1,5
9,353713;0,9682;1,8352;3,1308;18761,3672;69,2663;50,26533115;10,95352937;1,5
9,360328;0,9682;1,8352;3,1308;18538,0527;69,2663;50,26533115;10,95352937;1,5
9,411088;0,9682;1,8352;3,1308;18538,0527;69,2663;50,26533115;10,95352937;1,5
9,414752;0,4646;1,7579;1,9576;18538,0527;69,2663;50,26533115;10,95352937;1,5
9,418357;0,4646;1,7579;1,9576;18538,0527;69,2663;50,26533115;10,95352937;1,5
9,475473;0,4646;1,7579;1,9576;18538,0527;71,0833;50,26533115;10,95352937;1,5
9,479903;0,4646;1,7579;1,9576;18538,0527;71,0833;50,26533115;10,95352937;1,5
9,485232;-0,2046;-0,9644;1,3303;18538,0527;71,0833;50,26533115;10,95352937;1,5
9,540341;-0,2046;-0,9644;1,3303;18538,0527;71,0833;50,26533115;10,95352937;1,5
9,542322;-0,2046;-0,9644;1,3303;18538,0527;71,0833;50,26534354;10,95351925;1,41999996
9,543641;-1,4846;-1,3323;-0,4008;18538,0527;71,0833;50,26534354;10,95351925;1,41999996
9,564648;-1,4846;-1,3323;-0,4008;18860,1934;71,0833;50,26534354;10,95351925;1,41999996
9,606794;-1,4846;-1,3323;-0,4008;18860,1934;71,0833;50,26534354;10,95351925;1,41999996
9,61077;-1,4846;-1,3323;-0,4008;18860,1934;71,0833;50,26534354;10,95351925;1,41999996
9,613434;-0,0928;-1,0688;-2,1319;18860,1934;71,0833;50,26534354;10,95351925;1,41999996
9,673866;-0,0928;-1,0688;-2,1319;18860,1934;71,0833;50,26534354;10,95351925;1,41999996
9,6773;-0,0928;-1,0688;-2,1319;18860,1934;71,0833;50,26534354;10,95351925;1,41999996
9,680113;-0,2244;-0,6348;-3,2805;18860,1934;71,0833;50,26534354;10,95351925;1,41999996
9,737265;-0,2244;-0,6348;-3,2805;18860,1934;69,3835;50,26534354;10,95351925;1,41999996
9,740379;-0,2244;-0,6348;-3,2805;18860,1934;69,3835;50,26534354;10,95351925;1,41999996
9,742111;-0,7265;0,0717;-2,8875;18860,1934;69,3835;50,26534354;10,95351925;1,41999996
9,770129;-0,7265;0,0717;-2,8875;18386,2656;69,3835;50,26534354;10,95351925;1,41999996
9,80273;-0,7265;0,0717;-2,8875;18386,2656;69,3835;50,26534354;10,95351925;1,41999996
9,806471;-0,7265;0,0717;-2,8875;18386,2656;69,3835;50,26534354;10,95351925;1,41999996
9,808587;-0,9448;0,9746;-0,0152;18386,2656;69,3835;50,26534354;10,95351925;1,41999996
9,868485;-0,9448;0,9746;-0,0152;18386,2656;69,3835;50,26534354;10,95351925;1,41999996
9,872301;-0,9448;0,9746;-0,0152;18386,2656;69,3835;50,26534354;10,95351925;1,41999996
9,87466;0,6197;1,6723;1,9289;18386,2656;69,3835;50,26534354;10,95351925;1,41999996
9,878161;0,6197;1,6723;1,9289;18145,4785;69,3835;50,26534354;10,95351925;1,41999996
9,932454;0,6197;1,6723;1,9289;18145,4785;69,3835;50,26534354;10,95351925;1,41999996
9,934261;0,6197;1,6723;1,9289;18145,4785;69,3835;50,26534354;10,95351925;1,41999996
9,935253;2,3556;1,3885;3,6033;18145,4785;69,3835;50,26534354;10,95351925;1,41999996
9,969006;2,3556;1,3885;3,6033;18145,4785;69,3835;50,26534354;10,95351925;1,41999996
9,972651;2,3556;1,3885;3,6033;18145,4785;69,3835;50,26534354;10,95351925;1,41999996
9,975018;1,1017;-0,3951;1,5926;18145,4785;69,3835;50,26534354;10,95351925;1,41999996
10,03588;1,1017;-0,3951;1,5926;18145,4785;69,9912;50,26534354;10,95351925;1,41999996
10,039495;1,1017;-0,3951;1,5926;18145,4785;69,9912;50,26534354;10,95351925;1,41999996
10,041483;0,6117;-1,3917;1,0096;18145,4785;69,9912;50,26534354;10,95351925;1,41999996
10,101345;0,6117;-1,3917;1,0096;18145,4785;69,9912;50,26534354;10,95351925;1,41999996
10,105942;0,6117;-1,3917;1,0096;18145,4785;69,9912;50,26534354;10,95351925;1,41999996
10,108651;0,7185;-0,7863;-3,1731;18145,4785;69,9912;50,26534354;10,95351925;1,41999996
10,168004;-0,5334;-0,3919;-4,3398;18145,4785;69,9912;50,26534354;10,95351925;1,41999996
10,172822;-0,5334;-0,3919;-4,3398;18145,4785;69,9912;50,26534354;10,95351925;1,41999996
10,175222;-0,5334;-0,3919;-4,3398;18145,4785;69,9912;50,26534354;10,95351925;1,41999996
10,179387;-0,5334;-0,3919;-4,3398;17709,7695;69,9912;50,26534354;10,95351925;1,41999996
10,233914;-0,5334;-0,3919;-4,3398;17709,7695;69,9912;50,26534354;10,95351925;1,41999996
10,23747;-0,5334;-0,3919;-4,3398;17709,7695;69,9912;50,26534354;10,95351925;1,41999996
10,240122;-0,884;0,0339;-3,3207;17709,7695;69,9912;50,26534354;10,95351925;1,41999996
10,281347;-0,884;0,0339;-3,3207;17352,1387;69,9912;50,26534354;10,95351925;1,41999996
10,297951;-0,884;0,0339;-3,3207;17352,1387;69,9912;50,26534354;10,95351925;1,41999996
10,301673;-0,6119;1,3227;-0,0374;17352,1387;69,9912;50,26534354;10,95351925;1,41999996
10,305624;-0,6119;1,3227;-0,0374;17352,1387;69,9912;50,26534354;10,95351925;1,41999996
10,363537;-0,6119;1,3227;-0,0374;17352,1387;68,9665;50,26534354;10,95351925;1,41999996
10,367817;-0,6119;1,3227;-0,0374;17352,1387;68,9665;50,26534354;10,95351925;1,41999996
10,370642;0,2481;2,0861;2,3871;17352,1387;68,9665;50,26534354;10,95351925;1,41999996
10,428027;0,2481;2,0861;2,3871;17352,1387;68,9665;50,26534354;10,95351925;1,41999996
10,432988;0,2481;2,0861;2,3871;17352,1387;68,9665;50,26534354;10,95351925;1,41999996
10,436137;-0,0242;2,1253;3,4533;17352,1387;68,9665;50,26534354;10,95351925;1,41999996
10,470161;-0,0242;2,1253;3,4533;17352,1387;68,9665;50,26534354;10,95351925;1,41999996
10,486209;-0,0242;2,1253;3,4533;17110,2617;68,9665;50,26534354;10,95351925;1,41999996
10,533111;-0,0242;2,1253;3,4533;17110,2617;68,9665;50,26534354;10,95351925;1,41999996
10,53542;-0,0242;2,1253;3,4533;17110,2617;68,9665;50,26535703;10,95351265;1,58000004
10,537388;0,6633;-0,3332;4,3198;17110,2617;68,9665;50,26535703;10,95351265;1,58000004
10,597304;0,6633;-0,3332;4,3198;17110,2617;68,9665;50,26535703;10,95351265;1,58000004
10,601813;0,6633;-0,3332;4,3198;17110,2617;68,9665;50,26535703;10,95351265;1,58000004
10,605956;-1,5496;-2,1992;1,4233;17110,2617;68,9665;50,26535703;10,95351265;1,58000004
10,662206;-1,5496;-2,1992;1,4233;17110,2617;68,554;50,26535703;10,95351265;1,58000004
10,667027;-1,5496;-2,1992;1,4233;17110,2617;68,554;50,26535703;10,95351265;1,58000004
10,670184;-0,2994;-0,5768;-1,8472;17110,2617;68,554;50,26535703;10,95351265;1,58000004
10,729088;-0,2994;-0,5768;-1,8472;17110,2617;68,554;50,26535703;10,95351265;1,58000004
10,733784;0,6817;-0,2065;-2,4748;17110,2617;68,554;50,26535703;10,95351265;1,58000004
10,737832;0,6817;-0,2065;-2,4748;17110,2617;68,554;50,26535703;10,95351265;1,58000004
10,795354;0,6817;-0,2065;-2,4748;17110,2617;68,554;50,26535703;10,95351265;1,58000004
10,799866;0,6817;-0,2065;-2,4748;16837,8066;68,554;50,26535703;10,95351265;1,58000004
10,804477;0,6817;-0,2065;-2,4748;16837,8066;68,554;50,26535703;10,95351265;1,58000004
10,807473;-1,1267;-0,465;-2,1909;16837,8066;68,554;50,26535703;10,95351265;1,58000004
10,858175;-1,1267;-0,465;-2,1909;16837,8066;68,554;50,26535703;10,95351265;1,58000004
10,862011;-1,4791;0,5611;-2,588;16837,8066;68,554;50,26535703;10,95351265;1,58000004
10,865307;-1,4791;0,5611;-2,588;16837,8066;68,554;50,26535703;10,95351265;1,58000004
10,924816;-1,4791;0,5611;-2,588;16837,8066;68,554;50,26535703;10,95351265;1,58000004
10,928909;0,1713;0,942;1,1812;16837,8066;68,554;50,26535703;10,95351265;1,58000004
10,932722;0,1713;0,942;1,1812;16837,8066;68,554;50,26535703;10,95351265;1,58000004
10,991151;0,1713;0,942;1,1812;16837,8066;68,3626;50,26535703;10,95351265;1,58000004
10,995714;0,1713;0,942;1,1812;16837,8066;68,3626;50,26535703;10,95351265;1,58000004
10,998573;0,6741;0,6845;2,5377;16837,8066;68,3626;50,26535703;10,95351265;1,58000004
11,054696;0,6741;0,6845;2,5377;16837,8066;68,3626;50,26535703;10,95351265;1,58000004
11,058998;0,6741;0,6845;2,5377;16837,8066;68,3626;50,26535703;10,95351265;1,58000004
11,062911;1,4217;0,0748;2,7782;16837,8066;68,3626;50,26535703;10,95351265;1,58000004
11,101147;1,4217;0,0748;2,7782;17067,127;68,3626;50,26535703;10,95351265;1,58000004
11,119956;1,4217;0,0748;2,7782;17067,127;68,3626;50,26535703;10,95351265;1,58000004
11,123915;1,4217;0,0748;2,7782;17067,127;68,3626;50,26535703;10,95351265;1,58000004
11,127062;1,541;-1,1266;1,9775;17067,127;68,3626;50,26535703;10,95351265;1,58000004
11,185271;1,541;-1,1266;1,9775;17067,127;68,3626;50,26535703;10,95351265;1,58000004
11,190389;1,541;-1,1266;1,9775;17067,127;68,3626;50,26535703;10,95351265;1,58000004
11,193479;1,4157;-1,4108;-0,0228;17067,127;68,3626;50,26535703;10,95351265;1,58000004
11,219243;1,4157;-1,4108;-0,0228;17067,127;68,3626;50,26535703;10,95351265;1,58000004
11,223453;0,5226;-0,6643;-2,9558;17067,127;68,3626;50,26535703;10,95351265;1,58000004
11,278129;0,5226;-0,6643;-2,9558;17067,127;68,271;50,26535703;10,95351265;1,58000004
11,282347;0,5226;-0,6643;-2,9558;17067,127;68,271;50,26535703;10,95351265;1,58000004
11,28509;-0,4118;-0,1864;-4,1603;17067,127;68,271;50,26535703;10,95351265;1,58000004
11,343797;-0,4118;-0,1864;-4,1603;17067,127;68,271;50,26535703;10,95351265;1,58000004
11,347932;-0,3784;0,0358;-2,7908;17067,127;68,271;50,26535703;10,95351265;1,58000004
11,35169;-0,3784;0,0358;-2,7908;17067,127;68,271;50,26535703;10,95351265;1,58000004
11,407846;-0,3784;0,0358;-2,7908;16890,7695;68,271;50,26535703;10,95351265;1,58000004
11,41348;-0,3784;0,0358;-2,7908;16890,7695;68,271;50,26535703;10,95351265;1,58000004
11,416196;-0,3784;0,0358;-2,7908;16890,7695;68,271;50,26535703;10,95351265;1,58000004
11,419008;-0,2671;0,9227;-1,0273;16890,7695;68,271;50,26535703;10,95351265;1,58000004
11,475188;-0,2671;0,9227;-1,0273;16890,7695;68,271;50,26535703;10,95351265;1,58000004
11,479591;-0,2671;0,9227;-1,0273;16890,7695;68,271;50,26535703;10,95351265;1,58000004
11,482635;0,259;1,3296;1,6787;16890,7695;68,271;50,26535703;10,95351265;1,58000004
11,541475;0,259;1,3296;1,6787;16890,7695;68,271;50,26535703;10,95351265;1,58000004
11,544488;0,259;1,3296;1,6787;16890,7695;68,271;50,26537144;10,9535046;1,64999998
11,547141;0,3563;1,8587;3,9513;16890,7695;68,271;50,26537144;10,9535046;1,64999998
11,606184;0,3563;1,8587;3,9513;16890,7695;70,0592;50,26537144;10,9535046;1,64999998
11,610599;-0,692;0,2198;4,1366;16890,7695;70,0592;50,26537144;10,9535046;1,64999998
11,614786;-0,692;0,2198;4,1366;16890,7695;70,0592;50,26537144;10,9535046;1,64999998
11,617767;-0,692;0,2198;4,1366;16660,9023;70,0592;50,26537144;10,9535046;1,64999998
11,672249;-0,692;0,2198;4,1366;16660,9023;70,0592;50,26537144;10,9535046;1,64999998
11,677723;-0,692;0,2198;4,1366;16660,9023;70,0592;50,26537144;10,9535046;1,64999998
11,680457;-1,7817;-1,8123;1,9325;16660,9023;70,0592;50,26537144;10,9535046;1,64999998
11,7383;-1,7817;-1,8123;1,9325;16660,9023;70,0592;50,26537144;10,9535046;1,64999998
11,74324;-1,7817;-1,8123;1,9325;16660,9023;70,0592;50,26537144;10,9535046;1,64999998
11,746607;-0,6791;-1,324;-1,1818;16660,9023;70,0592;50,26537144;10,9535046;1,64999998
11,802247;-0,6791;-1,324;-1,1818;16660,9023;70,0592;50,26537144;10,9535046;1,64999998
11,806862;-0,6791;-1,324;-1,1818;16660,9023;70,0592;50,26537144;10,9535046;1,64999998
11,810424;-0,3671;-0,284;-3,3542;16660,9023;70,0592;50,26537144;10,9535046;1,64999998
11,819729;-0,3671;-0,284;-3,3542;17053,4766;70,0592;50,26537144;10,9535046;1,64999998
11,86697;-0,3671;-0,284;-3,3542;17053,4766;70,1545;50,26537144;10,9535046;1,64999998
11,87174;-0,3671;-0,284;-3,3542;17053,4766;70,1545;50,26537144;10,9535046;1,64999998
11,874752;-1,2087;0,5839;-3,1625;17053,4766;70,1545;50,26537144;10,9535046;1,64999998
11,918286;-1,2087;0,5839;-3,1625;17317,1953;70,1545;50,26537144;10,9535046;1,64999998
11,932676;-1,2087;0,5839;-3,1625;17317,1953;70,1545;50,26537144;10,9535046;1,64999998
11,936543;-1,2087;0,5839;-3,1625;17317,1953;70,1545;50,26537144;10,9535046;1,64999998
11,93885;-1,8626;0,8327;-2,4843;17317,1953;70,1545;50,26537144;10,9535046;1,64999998
11,970803;-1,8626;0,8327;-2,4843;17317,1953;70,1545;50,26537144;10,9535046;1,64999998
12,035475;-1,8626;0,8327;-2,4843;17317,1953;70,1545;50,26537144;10,9535046;1,64999998
12,039667;-1,8626;0,8327;-2,4843;17317,1953;70,1545;50,26537144;10,9535046;1,64999998
12,04316;-0,9717;-0,1427;1,5776;17317,1953;70,1545;50,26537144;10,9535046;1,64999998
12,100618;-0,9717;-0,1427;1,5776;17317,1953;70,1545;50,26537144;10,9535046;1,64999998
12,104891;-0,9717;-0,1427;1,5776;17317,1953;70,1545;50,26537144;10,9535046;1,64999998
12,107639;-0,1103;-0,485;3,6565;17317,1953;70,1545;50,26537144;10,9535046;1,64999998
12,166348;-0,1103;-0,485;3,6565;17317,1953;72,0836;50,26537144;10,9535046;1,64999998
12,171116;1,1681;0,7808;2,0319;17317,1953;72,0836;50,26537144;10,9535046;1,64999998
12,175481;1,1681;0,7808;2,0319;17317,1953;72,0836;50,26537144;10,9535046;1,64999998
12,232551;1,1681;0,7808;2,0319;17317,1953;72,0836;50,26537144;10,9535046;1,64999998
12,237158;1,1681;0,7808;2,0319;17317,1953;72,0836;50,26537144;10,9535046;1,64999998
12,240301;2,5736;-1,2391;3,5757;17317,1953;72,0836;50,26537144;10,9535046;1,64999998
12,296375;2,5736;-1,2391;3,5757;17317,1953;72,0836;50,26537144;10,9535046;1,64999998
12,300322;2,5736;-1,2391;3,5757;17317,1953;72,0836;50,26537144;10,9535046;1,64999998
12,303255;3,54;-3,1961;2,3396;17317,1953;72,0836;50,26537144;10,9535046;1,64999998
12,328344;3,54;-3,1961;2,3396;17752,9043;72,0836;50,26537144;10,9535046;1,64999998
12,361973;3,54;-3,1961;2,3396;17752,9043;72,0836;50,26537144;10,9535046;1,64999998
12,36729;1,6554;-0,8482;-4,1831;17752,9043;72,0836;50,26537144;10,9535046;1,64999998
12,372065;1,6554;-0,8482;-4,1831;17752,9043;72,0836;50,26537144;10,9535046;1,64999998
12,428735;1,6554;-0,8482;-4,1831;17752,9043;72,0836;50,26537144;10,9535046;1,64999998
12,432795;-0,953;0,0203;-6,0346;17752,9043;72,0836;50,26537144;10,9535046;1,64999998
12,436369;-0,953;0,0203;-6,0346;17999,6973;72,0836;50,26537144;10,9535046;1,64999998
12,43961;-0,953;0,0203;-6,0346;17999,6973;72,0836;50,26537144;10,9535046;1,64999998
12,469144;-0,953;0,0203;-6,0346;17999,6973;72,2656;50,26537144;10,9535046;1,64999998
12,474042;-1,3886;0,0659;-3,7559;17999,6973;72,2656;50,26537144;10,9535046;1,64999998
12,531405;-1,3886;0,0659;-3,7559;17999,6973;72,2656;50,26537144;10,9535046;1,64999998
12,53434;-1,3886;0,0659;-3,7559;17999,6973;72,2656;50,26538582;10,95349483;1,52999997
12,536843;-0,3867;1,0668;-1,6798;17999,6973;72,2656;50,26538582;10,95349483;1,52999997
12,595332;-0,3867;1,0668;-1,6798;17999,6973;72,2656;50,26538582;10,95349483;1,52999997
12,599421;-0,3867;1,0668;-1,6798;17999,6973;72,2656;50,26538582;10,95349483;1,52999997
12,60217;-0,4803;1,1876;3,1338;17999,6973;72,2656;50,26538582;10,95349483;1,52999997
12,662954;-0,4803;1,1876;3,1338;17999,6973;72,2656;50,26538582;10,95349483;1,52999997
12,668672;-0,4803;1,1876;3,1338;17999,6973;72,2656;50,26538582;10,95349483;1,52999997
12,671662;-0,9611;1,3312;4,3309;17999,6973;72,2656;50,26538582;10,95349483;1,52999997
12,727503;-0,9611;1,3312;4,3309;17999,6973;72,2656;50,26538582;10,95349483;1,52999997
12,732333;-0,9611;1,3312;4,3309;17999,6973;72,2656;50,26538582;10,95349483;1,52999997
12,735284;-0,3078;0,4095;2,9217;17999,6973;72,2656;50,26538582;10,95349483;1,52999997
12,792011;-0,3078;0,4095;2,9217;17999,6973;70,9941;50,26538582;10,95349483;1,52999997
12,796664;-0,3078;0,4095;2,9217;17999,6973;70,9941;50,26538582;10,95349483;1,52999997
12,799946;-1,389;-1,6335;2,3762;17999,6973;70,9941;50,26538582;10,95349483;1,52999997
12,857115;-1,389;-1,6335;2,3762;17999,6973;70,9941;50,26538582;10,95349483;1,52999997
12,862552;-1,389;-1,6335;2,3762;17999,6973;70,9941;50,26538582;10,95349483;1,52999997
12,865341;-0,8249;-0,6539;-1,3684;17999,6973;70,9941;50,26538582;10,95349483;1,52999997
12,923129;0,1476;-0,1478;-2,6535;17999,6973;70,9941;50,26538582;10,95349483;1,52999997
12,928322;0,1476;-0,1478;-2,6535;17999,6973;70,9941;50,26538582;10,95349483;1,52999997
12,931277;0,1476;-0,1478;-2,6535;17999,6973;70,9941;50,26538582;10,95349483;1,52999997
12,941196;0,1476;-0,1478;-2,6535;17699,9414;70,9941;50,26538582;10,95349483;1,52999997
12,988489;0,1476;-0,1478;-2,6535;17699,9414;70,9941;50,26538582;10,95349483;1,52999997
12,993217;0,1476;-0,1478;-2,6535;17699,9414;70,9941;50,26538582;10,95349483;1,52999997
12,995813;0,0595;-0,0765;-2,0368;17699,9414;70,9941;50,26538582;10,95349483;1,52999997
13,044424;0,0595;-0,0765;-2,0368;17507,2031;68,634;50,26538582;10,95349483;1,52999997
13,052335;0,0595;-0,0765;-2,0368;17507,2031;68,634;50,26538582;10,95349483;1,52999997
13,055612;0,0595;-0,0765;-2,0368;17507,2031;68,634;50,26538582;10,95349483;1,52999997
13,058134;-0,6845;0,9638;-3,3747;17507,2031;68,634;50,26538582;10,95349483;1,52999997
13,11869;-0,6845;0,9638;-3,3747;17507,2031;68,634;50,26538582;10,95349483;1,52999997
13,125017;-0,6845;0,9638;-3,3747;17507,2031;68,634;50,26538582;10,95349483;1,52999997
13,128069;-0,4206;0,5814;0,7408;17507,2031;68,634;50,26538582;10,95349483;1,52999997
13,145446;-0,4206;0,5814;0,7408;17714,6836;68,634;50,26538582;10,95349483;1,52999997
13,183997;-0,4206;0,5814;0,7408;17714,6836;68,634;50,26538582;10,95349483;1,52999997
13,188928;-0,4206;0,5814;0,7408;17714,6836;68,634;50,26538582;10,95349483;1,52999997
13,192347;0,6133;-0,0477;3,0462;17714,6836;68,634;50,26538582;10,95349483;1,52999997
13,219871;0,6133;-0,0477;3,0462;17714,6836;68,634;50,26538582;10,95349483;1,52999997
13,24971;0,6133;-0,0477;3,0462;18010,0703;68,634;50,26538582;10,95349483;1,52999997
13,287698;0,6133;-0,0477;3,0462;18010,0703;68,634;50,26538582;10,95349483;1,52999997
13,292779;0,6133;-0,0477;3,0462;18010,0703;68,634;50,26538582;10,95349483;1,52999997
13,296235;1,6601;-0,0502;3,3038;18010,0703;68,634;50,26538582;10,95349483;1,52999997
13,353959;1,6601;-0,0502;3,3038;18214,2754;72,7898;50,26538582;10,95349483;1,52999997
13,359711;1,6601;-0,0502;3,3038;18214,2754;72,7898;50,26538582;10,95349483;1,52999997
13,363817;1,6601;-0,0502;3,3038;18214,2754;72,7898;50,26538582;10,95349483;1,52999997
13,36781;2,0157;-0,871;2,564;18214,2754;72,7898;50,26538582;10,95349483;1,52999997
13,416829;2,0157;-0,871;2,564;18214,2754;72,7898;50,26538582;10,95349483;1,52999997
13,420658;2,0157;-0,871;2,564;18214,2754;72,7898;50,26538582;10,95349483;1,52999997
13,423322;2,2248;-1,7465;0,8847;18214,2754;72,7898;50,26538582;10,95349483;1,52999997
13,452269;2,2248;-1,7465;0,8847;17923,8008;72,7898;50,26538582;10,95349483;1,52999997
13,483946;2,2248;-1,7465;0,8847;17923,8008;72,7898;50,26538582;10,95349483;1,52999997
13,487922;2,2248;-1,7465;0,8847;17923,8008;72,7898;50,26538582;10,95349483;1,52999997
13,49103;0,5809;-0,9724;-2,3939;17923,8008;72,7898;50,26538582;10,95349483;1,52999997
13,552781;0,5809;-0,9724;-2,3939;17923,8008;72,7898;50,26538582;10,95349483;1,52999997
13,555573;0,5809;-0,9724;-2,3939;17923,8008;72,7898;50,26540131;10,95348223;1,54999995
13,557712;-1,3397;-0,0827;-4,9924;17923,8008;72,7898;50,26540131;10,95348223;1,54999995
13,559457;-1,3397;-0,0827;-4,9924;17583,6445;72,7898;50,26540131;10,95348223;1,54999995
13,613277;-1,3397;-0,0827;-4,9924;17583,6445;72,7898;50,26540131;10,95348223;1,54999995
13,617387;-1,3397;-0,0827;-4,9924;17583,6445;72,7898;50,26540131;10,95348223;1,54999995
13,620338;-1,5918;0,3661;-3,2443;17583,6445;72,7898;50,26540131;10,95348223;1,54999995
13,681271;-1,5918;0,3661;-3,2443;17583,6445;70,9997;50,26540131;10,95348223;1,54999995
13,687315;-1,0945;1,045;-1,1815;17583,6445;70,9997;50,26540131;10,95348223;1,54999995
13,691535;-1,0945;1,045;-1,1815;17583,6445;70,9997;50,26540131;10,95348223;1,54999995
13,720896;-1,0945;1,045;-1,1815;17583,6445;70,9997;50,26540131;10,95348223;1,54999995
13,727512;-0,7415;1,2713;1,7817;17583,6445;70,9997;50,26540131;10,95348223;1,54999995
13,759931;-0,7415;1,2713;1,7817;17287,166;70,9997;50,26540131;10,95348223;1,54999995
13,781695;-0,7415;1,2713;1,7817;17287,166;70,9997;50,26540131;10,95348223;1,54999995
13,786956;0,4972;-0,0807;5,2673;17287,166;70,9997;50,26540131;10,95348223;1,54999995
13,790798;0,4972;-0,0807;5,2673;17287,166;70,9997;50,26540131;10,95348223;1,54999995
13,846919;0,4972;-0,0807;5,2673;17287,166;70,9997;50,26540131;10,95348223;1,54999995
13,851125;0,4972;-0,0807;5,2673;17287,166;70,9997;50,26540131;10,95348223;1,54999995
13,853863;1,8399;-0,7922;3,4091;17287,166;70,9997;50,26540131;10,95348223;1,54999995
13,867165;1,8399;-0,7922;3,4091;17081,8691;70,9997;50,26540131;10,95348223;1,54999995
13,911666;1,8399;-0,7922;3,4091;17081,8691;70,9997;50,26540131;10,95348223;1,54999995
13,915605;1,8399;-0,7922;3,4091;17081,8691;70,9997;50,26540131;10,95348223;1,54999995
13,918477;0,4295;-0,7557;0,2518;17081,8691;70,9997;50,26540131;10,95348223;1,54999995
13,964682;0,4295;-0,7557;0,2518;16824,1562;73,2759;50,26540131;10,95348223;1,54999995
13,978596;0,4295;-0,7557;0,2518;16824,1562;73,2759;50,26540131;10,95348223;1,54999995
13,981321;0,4295;-0,7557;0,2518;16824,1562;73,2759;50,26540131;10,95348223;1,54999995
13,984634;-0,0049;-0,2852;-1,6197;16824,1562;73,2759;50,26540131;10,95348223;1,54999995
14,044367;-0,0049;-0,2852;-1,6197;16824,1562;73,2759;50,26540131;10,95348223;1,54999995
14,048958;-0,0049;-0,2852;-1,6197;16824,1562;73,2759;50,26540131;10,95348223;1,54999995
14,052243;-1,3242;-0,5226;-2,4923;16824,1562;73,2759;50,26540131;10,95348223;1,54999995
14,066456;-1,3242;-0,5226;-2,4923;16599,2051;73,2759;50,26540131;10,95348223;1,54999995
14,108529;-1,5931;-0,245;-2,1082;16599,2051;73,2759;50,26540131;10,95348223;1,54999995
14,114865;-1,5931;-0,245;-2,1082;16599,2051;73,2759;50,26540131;10,95348223;1,54999995
14,118223;-1,5931;-0,245;-2,1082;16599,2051;73,2759;50,26540131;10,95348223;1,54999995
14,168469;-1,5931;-0,245;-2,1082;16428,3066;73,2759;50,26540131;10,95348223;1,54999995
14,1738;-1,5931;-0,245;-2,1082;16428,3066;73,2759;50,26540131;10,95348223;1,54999995
14,176936;-1,5931;-0,245;-2,1082;16428,3066;73,2759;50,26540131;10,95348223;1,54999995
14,18003;-0,8216;0,8088;-2,2306;16428,3066;73,2759;50,26540131;10,95348223;1,54999995
14,239714;-0,8216;0,8088;-2,2306;16428,3066;72,5459;50,26540131;10,95348223;1,54999995
14,243846;-0,8216;0,8088;-2,2306;16428,3066;72,5459;50,26540131;10,95348223;1,54999995
14,24671;0,2393;0,9606;0,8782;16428,3066;72,5459;50,26540131;10,95348223;1,54999995
14,305009;0,2393;0,9606;0,8782;16428,3066;72,5459;50,26540131;10,95348223;1,54999995
14,308866;1,4063;0,7812;2,5407;16428,3066;72,5459;50,26540131;10,95348223;1,54999995
14,312441;1,4063;0,7812;2,5407;16428,3066;72,5459;50,26540131;10,95348223;1,54999995
14,371891;1,4063;0,7812;2,5407;16428,3066;72,5459;50,26540131;10,95348223;1,54999995
14,37646;1,4063;0,7812;2,5407;16428,3066;72,5459;50,26540131;10,95348223;1,54999995
14,379542;1,9867;-0,1858;3,1417;16428,3066;72,5459;50,26540131;10,95348223;1,54999995
14,434976;1,9867;-0,1858;3,1417;16428,3066;72,5459;50,26540131;10,95348223;1,54999995
14,439944;1,9867;-0,1858;3,1417;16428,3066;72,5459;50,26540131;10,95348223;1,54999995
14,442887;0,6916;-1,3351;2,2008;16428,3066;72,5459;50,26540131;10,95348223;1,54999995
14,470887;0,6916;-1,3351;2,2008;16428,3066;72,5459;50,26540131;10,95348223;1,54999995
14,528271;0,6916;-1,3351;2,2008;16428,3066;72,5459;50,26540131;10,95348223;1,54999995
14,529721;0,6916;-1,3351;2,2008;16428,3066;72,5459;50,26541498;10,95347045;1,5
14,530765;1,3886;-1,3866;-1,0236;16428,3066;72,5459;50,26541498;10,95347045;1,5
14,577914;1,3886;-1,3866;-1,0236;16724,7832;70,2766;50,26541498;10,95347045;1,5
14,594325;1,3886;-1,3866;-1,0236;16724,7832;70,2766;50,26541498;10,95347045;1,5
14,595249;-0,0544;-0,8699;-2,4583;16724,7832;70,2766;50,26541498;10,95347045;1,5
14,596323;-0,0544;-0,8699;-2,4583;16724,7832;70,2766;50,26541498;10,95347045;1,5
14,660874;-0,0544;-0,8699;-2,4583;16724,7832;70,2766;50,26541498;10,95347045;1,5
14,668688;-0,0544;-0,8699;-2,4583;16724,7832;70,2766;50,26541498;10,95347045;1,5
14,671981;-1,3508;-0,3714;-4,1436;16724,7832;70,2766;50,26541498;10,95347045;1,5
14,686327;-1,3508;-0,3714;-4,1436;17112,9902;70,2766;50,26541498;10,95347045;1,5
14,72616;-1,3508;-0,3714;-4,1436;17112,9902;70,2766;50,26541498;10,95347045;1,5
14,731391;-1,3508;-0,3714;-4,1436;17112,9902;70,2766;50,26541498;10,95347045;1,5
14,734959;-1,0206;0,241;-2,6213;17112,9902;70,2766;50,26541498;10,95347045;1,5
14,782933;-1,0206;0,241;-2,6213;17470,6211;70,2766;50,26541498;10,95347045;1,5
14,790535;-1,0206;0,241;-2,6213;17470,6211;70,2766;50,26541498;10,95347045;1,5
14,79402;-1,0206;0,241;-2,6213;17470,6211;70,2766;50,26541498;10,95347045;1,5
14,796554;-0,335;1,2867;-0,9138;17470,6211;70,2766;50,26541498;10,95347045;1,5
14,856194;-0,4972;2,0966;1,4254;17470,6211;71,6492;50,26541498;10,95347045;1,5
14,862153;-0,4972;2,0966;1,4254;17470,6211;71,6492;50,26541498;10,95347045;1,5
14,865169;-0,4972;2,0966;1,4254;17470,6211;71,6492;50,26541498;10,95347045;1,5
14,884849;-0,4972;2,0966;1,4254;17658,4453;71,6492;50,26541498;10,95347045;1,5
14,922724;-0,4972;2,0966;1,4254;17658,4453;71,6492;50,26541498;10,95347045;1,5
14,928271;-0,4972;2,0966;1,4254;17658,4453;71,6492;50,26541498;10,95347045;1,5
14,933608;0,1209;1,5455;3,868;17658,4453;71,6492;50,26541498;10,95347045;1,5
14,98884;0,1209;1,5455;3,868;17658,4453;71,6492;50,26541498;10,95347045;1,5
14,995037;0,1209;1,5455;3,868;17658,4453;71,6492;50,26541498;10,95347045;1,5
14,99859;0,3204;0,772;3,0928;17658,4453;71,6492;50,26541498;10,95347045;1,5
15,052956;0,3204;0,772;3,0928;17658,4453;71,6492;50,26541498;10,95347045;1,5
15,058653;0,3284;-1,6245;2,1122;17658,4453;71,6492;50,26541498;10,95347045;1,5
15,0648;0,3284;-1,6245;2,1122;17658,4453;71,6492;50,26541498;10,95347045;1,5
15,089825;0,3284;-1,6245;2,1122;17943,457;71,6492;50,26541498;10,95347045;1,5
15,117785;0,3284;-1,6245;2,1122;17943,457;71,6492;50,26541498;10,95347045;1,5
15,121908;-0,5278;-1,2016;-1,0797;17943,457;71,6492;50,26541498;10,95347045;1,5
15,125485;-0,5278;-1,2016;-1,0797;17943,457;71,6492;50,26541498;10,95347045;1,5
15,183609;-0,5278;-1,2016;-1,0797;17943,457;71,0598;50,26541498;10,95347045;1,5
15,187925;-0,5278;-1,2016;-1,0797;17943,457;71,0598;50,26541498;10,95347045;1,5
15,190545;0,2229;0,0132;-3,5566;17943,457;71,0598;50,26541498;10,95347045;1,5
15,194046;0,2229;0,0132;-3,5566;18140,0176;71,0598;50,26541498;10,95347045;1,5
15,221028;0,2229;0,0132;-3,5566;18140,0176;71,0598;50,26541498;10,95347045;1,5
15,226137;-0,2878;-0,4393;-2,0282;18140,0176;71,0598;50,26541498;10,95347045;1,5
15,283969;-0,2878;-0,4393;-2,0282;18140,0176;71,0598;50,26541498;10,95347045;1,5
15,28663;-0,2878;-0,4393;-2,0282;18140,0176;71,0598;50,26541498;10,95347045;1,5
15,288036;-1,1315;0,4779;-2,3176;18140,0176;71,0598;50,26541498;10,95347045;1,5
15,349962;-1,1315;0,4779;-2,3176;18140,0176;71,0598;50,26541498;10,95347045;1,5
15,351754;-1,1315;0,4779;-2,3176;18140,0176;71,0598;50,26541498;10,95347045;1,5
15,352573;-0,605;0,7776;0,1577;18140,0176;71,0598;50,26541498;10,95347045;1,5
15,3963;-0,605;0,7776;0,1577;17858,2812;71,0598;50,26541498;10,95347045;1,5
15,4187;-0,605;0,7776;0,1577;17858,2812;71,0598;50,26541498;10,95347045;1,5
15,423679;-0,605;0,7776;0,1577;17858,2812;71,0598;50,26541498;10,95347045;1,5
15,426983;-0,2587;1,0313;1,4493;17858,2812;71,0598;50,26541498;10,95347045;1,5
15,481129;-0,2587;1,0313;1,4493;17858,2812;68,7481;50,26541498;10,95347045;1,5
15,485576;-0,2587;1,0313;1,4493;17858,2812;68,7481;50,26541498;10,95347045;1,5
15,487171;0,517;-0,0563;3,6877;17858,2812;68,7481;50,26541498;10,95347045;1,5
15,546896;0,517;-0,0563;3,6877;17858,2812;68,7481;50,26541498;10,95347045;1,5
15,550277;-0,0131;-0,764;2,8768;17858,2812;68,7481;50,26542712;10,95346668;1,40999997
15,552796;-0,0131;-0,764;2,8768;17858,2812;68,7481;50,26542712;10,95346668;1,40999997
15,600246;-0,0131;-0,764;2,8768;17495,1914;68,7481;50,26542712;10,95346668;1,40999997
15,612387;-0,0131;-0,764;2,8768;17495,1914;68,7481;50,26542712;10,95346668;1,40999997
15,615853;-0,0131;-0,764;2,8768;17495,1914;68,7481;50,26542712;10,95346668;1,40999997
15,618705;0,6105;-1,7761;2,4653;17495,1914;68,7481;50,26542712;10,95346668;1,40999997
15,677483;0,6105;-1,7761;2,4653;17495,1914;68,7481;50,26542712;10,95346668;1,40999997
15,681287;0,6105;-1,7761;2,4653;17495,1914;68,7481;50,26542712;10,95346668;1,40999997
15,685017;1,465;-0,9351;-0,3149;17495,1914;68,7481;50,26542712;10,95346668;1,40999997
15,703194;1,465;-0,9351;-0,3149;17292,625;68,7481;50,26542712;10,95346668;1,40999997
15,72047;1,465;-0,9351;-0,3149;17292,625;68,7481;50,26542712;10,95346668;1,40999997
15,779587;1,465;-0,9351;-0,3149;17292,625;69,5093;50,26542712;10,95346668;1,40999997
15,782526;1,465;-0,9351;-0,3149;17292,625;69,5093;50,26542712;10,95346668;1,40999997
15,784107;-0,4715;0,0398;-5,1932;17292,625;69,5093;50,26542712;10,95346668;1,40999997
15,845658;-0,4715;0,0398;-5,1932;17292,625;69,5093;50,26542712;10,95346668;1,40999997
15,850054;-0,4715;0,0398;-5,1932;17292,625;69,5093;50,26542712;10,95346668;1,40999997
15,853083;-0,9107;-0,0526;-4,3142;17292,625;69,5093;50,26542712;10,95346668;1,40999997
15,912401;-0,9107;-0,0526;-4,3142;17292,625;69,5093;50,26542712;10,95346668;1,40999997
15,916523;-0,9107;-0,0526;-4,3142;17292,625;69,5093;50,26542712;10,95346668;1,40999997
15,919804;0,0481;0,75;-2,5953;17292,625;69,5093;50,26542712;10,95346668;1,40999997
15,977012;0,0481;0,75;-2,5953;17292,625;69,5093;50,26542712;10,95346668;1,40999997
15,981281;0,0481;0,75;-2,5953;17292,625;69,5093;50,26542712;10,95346668;1,40999997
15,984423;0,2521;1,2707;1,4608;17292,625;69,5093;50,26542712;10,95346668;1,40999997
16,041401;0,2521;1,2707;1,4608;17292,625;72,4002;50,26542712;10,95346668;1,40999997
16,047689;0,2521;1,2707;1,4608;17292,625;72,4002;50,26542712;10,95346668;1,40999997
16,050769;0,346;1,5096;4,2912;17292,625;72,4002;50,26542712;10,95346668;1,40999997
16,107353;0,346;1,5096;4,2912;17292,625;72,4002;50,26542712;10,95346668;1,40999997
16,111437;0,346;1,5096;4,2912;17292,625;72,4002;50,26542712;10,95346668;1,40999997
16,114186;0,607;0,5637;3,7493;17292,625;72,4002;50,26542712;10,95346668;1,40999997
16,173357;0,607;0,5637;3,7493;17292,625;72,4002;50,26542712;10,95346668;1,40999997
16,177396;0,607;0,5637;3,7493;17292,625;72,4002;50,26542712;10,95346668;1,40999997
16,181158;-0,085;-1,2392;0,9951;17292,625;72,4002;50,26542712;10,95346668;1,40999997
16,214274;-0,085;-1,2392;0,9951;17514,8477;72,4002;50,26542712;10,95346668;1,40999997
16,239206;-0,085;-1,2392;0,9951;17514,8477;72,4002;50,26542712;10,95346668;1,40999997
16,24509;-0,085;-1,2392;0,9951;17514,8477;72,4002;50,26542712;10,95346668;1,40999997
16,248237;-2,0156;-0,4184;-1,7313;17514,8477;72,4002;50,26542712;10,95346668;1,40999997
16,303478;-2,0156;-0,4184;-1,7313;17514,8477;72,4002;50,26542712;10,95346668;1,40999997
16,307446;-0,2421;-0,332;-1,2855;17514,8477;72,4002;50,26542712;10,95346668;1,40999997
16,310945;-0,2421;-0,332;-1,2855;17514,8477;72,4002;50,26542712;10,95346668;1,40999997
16,316711;-0,2421;-0,332;-1,2855;17879,0293;72,4002;50,26542712;10,95346668;1,40999997
16,368281;-0,2421;-0,332;-1,2855;17879,0293;69,4613;50,26542712;10,95346668;1,40999997
16,373416;-0,2421;-0,332;-1,2855;17879,0293;69,4613;50,26542712;10,95346668;1,40999997
16,376504;-0,3058;-0,5464;-0,7644;17879,0293;69,4613;50,26542712;10,95346668;1,40999997
16,419333;-0,3058;-0,5464;-0,7644;18530,4082;69,4613;50,26542712;10,95346668;1,40999997
16,434597;-0,3058;-0,5464;-0,7644;18530,4082;69,4613;50,26542712;10,95346668;1,40999997
16,43808;-0,3058;-0,5464;-0,7644;18530,4082;69,4613;50,26542712;10,95346668;1,40999997
16,441114;-0,6913;0,1543;-2,8361;18530,4082;69,4613;50,26542712;10,95346668;1,40999997
16,470546;-0,6913;0,1543;-2,8361;18530,4082;69,4613;50,26542712;10,95346668;1,40999997
16,478373;-0,8448;0,2411;-0,7603;18530,4082;69,4613;50,26542712;10,95346668;1,40999997
16,530343;-0,8448;0,2411;-0,7603;19140,8359;69,4613;50,26542712;10,95346668;1,40999997
16,533099;-0,8448;0,2411;-0,7603;19140,8359;69,4613;50,26543885;10,95346208;1,39999998
16,535379;-0,8448;0,2411;-0,7603;19140,8359;69,4613;50,26543885;10,95346208;1,39999998
16,536661;0,297;-0,0655;2,3504;19140,8359;69,4613;50,26543885;10,95346208;1,39999998
16,592462;0,297;-0,0655;2,3504;19140,8359;69,4613;50,26543885;10,95346208;1,39999998
16,596808;0,297;-0,0655;2,3504;19140,8359;69,4613;50,26543885;10,95346208;1,39999998
16,599873;1,2213;-0,3074;3,1066;19140,8359;69,4613;50,26543885;10,95346208;1,39999998
16,623569;1,2213;-0,3074;3,1066;19738,707;69,4613;50,26543885;10,95346208;1,39999998
16,659144;1,2213;-0,3074;3,1066;19738,707;70,3887;50,26543885;10,95346208;1,39999998
16,664007;1,2213;-0,3074;3,1066;19738,707;70,3887;50,26543885;10,95346208;1,39999998
16,667086;1,6059;-0,329;1,576;19738,707;70,3887;50,26543885;10,95346208;1,39999998
16,724217;1,6059;-0,329;1,576;19738,707;70,3887;50,26543885;10,95346208;1,39999998
16,728208;1,6059;-0,329;1,576;19738,707;70,3887;50,26543885;10,95346208;1,39999998
16,730978;0,6885;-1,7645;2,0936;19738,707;70,3887;50,26543885;10,95346208;1,39999998
16,788262;0,6885;-1,7645;2,0936;19738,707;70,3887;50,26543885;10,95346208;1,39999998
16,792573;1,8986;-1,6157;-1,0944;19738,707;70,3887;50,26543885;10,95346208;1,39999998
16,796145;1,8986;-1,6157;-1,0944;19738,707;70,3887;50,26543885;10,95346208;1,39999998
16,827406;1,8986;-1,6157;-1,0944;19394,7266;70,3887;50,26543885;10,95346208;1,39999998
16,853738;1,8986;-1,6157;-1,0944;19394,7266;70,3887;50,26543885;10,95346208;1,39999998
16,85889;1,8986;-1,6157;-1,0944;19394,7266;70,3887;50,26543885;10,95346208;1,39999998
16,861922;-1,2412;-0,3523;-4,663;19394,7266;70,3887;50,26543885;10,95346208;1,39999998
16,918438;-1,2412;-0,3523;-4,663;19394,7266;70,3887;50,26543885;10,95346208;1,39999998
16,920767;-1,8544;0,0175;-3,4565;19394,7266;70,3887;50,26543885;10,95346208;1,39999998
16,922809;-1,8544;0,0175;-3,4565;19394,7266;70,3887;50,26543885;10,95346208;1,39999998
16,927505;-1,8544;0,0175;-3,4565;19027,2695;70,3887;50,26543885;10,95346208;1,39999998
16,986675;-1,8544;0,0175;-3,4565;19027,2695;68,1393;50,26543885;10,95346208;1,39999998
16,991152;-1,8544;0,0175;-3,4565;19027,2695;68,1393;50,26543885;10,95346208;1,39999998
16,994078;-0,5361;0,8083;-2,6961;19027,2695;68,1393;50,26543885;10,95346208;1,39999998
17,031246;-0,5361;0,8083;-2,6961;18756,998;68,1393;50,26543885;10,95346208;1,39999998
17,050571;-0,5361;0,8083;-2,6961;18756,998;68,1393;50,26543885;10,95346208;1,39999998
17,055853;-0,5361;0,8083;-2,6961;18756,998;68,1393;50,26543885;10,95346208;1,39999998
17,059078;-0,7217;1,6157;0,5843;18756,998;68,1393;50,26543885;10,95346208;1,39999998
17,116551;-0,7217;1,6157;0,5843;18756,998;68,1393;50,26543885;10,95346208;1,39999998
17,120755;-0,7217;1,6157;0,5843;18756,998;68,1393;50,26543885;10,95346208;1,39999998
17,12384;-0,6181;1,9116;3,4375;18756,998;68,1393;50,26543885;10,95346208;1,39999998
17,133666;-0,6181;1,9116;3,4375;18546,2422;68,1393;50,26543885;10,95346208;1,39999998
17,183801;-0,6181;1,9116;3,4375;18546,2422;68,1393;50,26543885;10,95346208;1,39999998
17,188564;-0,6181;1,9116;3,4375;18546,2422;68,1393;50,26543885;10,95346208;1,39999998
17,191367;0,5013;1,1063;5,1243;18546,2422;68,1393;50,26543885;10,95346208;1,39999998
17,219888;0,5013;1,1063;5,1243;18546,2422;68,1393;50,26543885;10,95346208;1,39999998
17,284045;0,5013;1,1063;5,1243;18546,2422;74,3081;50,26543885;10,95346208;1,39999998
17,288579;0,5013;1,1063;5,1243;18546,2422;74,3081;50,26543885;10,95346208;1,39999998
17,291547;0,2237;-0,9455;2,8858;18546,2422;74,3081;50,26543885;10,95346208;1,39999998
17,339043;0,2237;-0,9455;2,8858;19057,8457;74,3081;50,26543885;10,95346208;1,39999998
17,349915;0,2237;-0,9455;2,8858;19057,8457;74,3081;50,26543885;10,95346208;1,39999998
17,354301;0,2237;-0,9455;2,8858;19057,8457;74,3081;50,26543885;10,95346208;1,39999998
17,357261;-0,9481;-1,1697;-0,1631;19057,8457;74,3081;50,26543885;10,95346208;1,39999998
17,415289;-0,9481;-1,1697;-0,1631;19057,8457;74,3081;50,26543885;10,95346208;1,39999998
17,419945;-0,9481;-1,1697;-0,1631;19057,8457;74,3081;50,26543885;10,95346208;1,39999998
17,424186;1,0158;0,2358;-3,0273;19057,8457;74,3081;50,26543885;10,95346208;1,39999998
17,440203;1,0158;0,2358;-3,0273;19519,7617;74,3081;50,26543885;10,95346208;1,39999998
17,4804;1,0158;0,2358;-3,0273;19519,7617;74,3081;50,26543885;10,95346208;1,39999998
17,486312;1,0158;0,2358;-3,0273;19519,7617;74,3081;50,26543885;10,95346208;1,39999998
17,488794;0,2965;-0,6044;-2,5368;19519,7617;74,3081;50,26543885;10,95346208;1,39999998
17,544807;0,2965;-0,6044;-2,5368;19519,7617;70,9644;50,26543885;10,95346208;1,39999998
17,547794;0,2965;-0,6044;-2,5368;19519,7617;70,9644;50,26544913;10,95345479;1,40999997
17,549786;-1,2432;-0,1584;-1,8829;19519,7617;70,9644;50,26544913;10,95345479;1,40999997
17,611021;-1,2432;-0,1584;-1,8829;19519,7617;70,9644;50,26544913;10,95345479;1,40999997
17,615074;-1,2432;-0,1584;-1,8829;19519,7617;70,9644;50,26544913;10,95345479;1,40999997
17,617849;-1,5538;1,2001;-2,7947;19519,7617;70,9644;50,26544913;10,95345479;1,40999997
17,645397;-1,5538;1,2001;-2,7947;19818,4238;70,9644;50,26544913;10,95345479;1,40999997
17,677294;-1,5538;1,2001;-2,7947;19818,4238;70,9644;50,26544913;10,95345479;1,40999997
17,682922;-1,5538;1,2001;-2,7947;19818,4238;70,9644;50,26544913;10,95345479;1,40999997
17,686238;0,311;0,7661;2,3785;19818,4238;70,9644;50,26544913;10,95345479;1,40999997
17,720075;0,311;0,7661;2,3785;19818,4238;70,9644;50,26544913;10,95345479;1,40999997
17,724337;1,4798;-0,083;4,0156;19818,4238;70,9644;50,26544913;10,95345479;1,40999997
17,747879;1,4798;-0,083;4,0156;20337,125;70,9644;50,26544913;10,95345479;1,40999997
17,779858;1,4798;-0,083;4,0156;20337,125;70,9644;50,26544913;10,95345479;1,40999997
17,78408;1,4798;-0,083;4,0156;20337,125;70,9644;50,26544913;10,95345479;1,40999997
17,786923;1,8624;-0,0608;1,4735;20337,125;70,9644;50,26544913;10,95345479;1,40999997
17,844323;1,8624;-0,0608;1,4735;20337,125;69,6413;50,26544913;10,95345479;1,40999997
17,849122;1,8624;-0,0608;1,4735;20337,125;69,6413;50,26544913;10,95345479;1,40999997
17,852808;1,1366;-1,6353;1,2851;20337,125;69,6413;50,26544913;10,95345479;1,40999997
17,856672;1,1366;-1,6353;1,2851;20874,9355;69,6413;50,26544913;10,95345479;1,40999997
17,909655;1,1366;-1,6353;1,2851;20874,9355;69,6413;50,26544913;10,95345479;1,40999997
17,914655;1,1366;-1,6353;1,2851;20874,9355;69,6413;50,26544913;10,95345479;1,40999997
17,917265;1,2727;-1,4871;-1,0029;20874,9355;69,6413;50,26544913;10,95345479;1,40999997
17,975911;1,2727;-1,4871;-1,0029;20874,9355;69,6413;50,26544913;10,95345479;1,40999997
17,981042;0,6493;-0,2466;-2,2458;20874,9355;69,6413;50,26544913;10,95345479;1,40999997
17,985203;0,6493;-0,2466;-2,2458;20874,9355;69,6413;50,26544913;10,95345479;1,40999997
18,041669;0,6493;-0,2466;-2,2458;20874,9355;69,6413;50,26544913;10,95345479;1,40999997
18,047175;0,6493;-0,2466;-2,2458;20874,9355;69,6413;50,26544913;10,95345479;1,40999997
18,050372;-1,3782;0,649;-3,1106;20874,9355;69,6413;50,26544913;10,95345479;1,40999997
18,054882;-1,3782;0,649;-3,1106;20435,4043;69,6413;50,26544913;10,95345479;1,40999997
18,10706;-1,3782;0,649;-3,1106;20435,4043;69,6413;50,26544913;10,95345479;1,40999997
18,111686;-1,3782;0,649;-3,1106;20435,4043;69,6413;50,26544913;10,95345479;1,40999997
18,114854;-0,3195;0,9914;-2,549;20435,4043;69,6413;50,26544913;10,95345479;1,40999997
18,157129;-0,3195;0,9914;-2,549;19884,4902;68,1999;50,26544913;10,95345479;1,40999997
18,178173;-0,3195;0,9914;-2,549;19884,4902;68,1999;50,26544913;10,95345479;1,40999997
18,182782;-0,3195;0,9914;-2,549;19884,4902;68,1999;50,26544913;10,95345479;1,40999997
18,18637;-0,1088;0,6645;0,6895;19884,4902;68,1999;50,26544913;10,95345479;1,40999997
18,238326;-0,1088;0,6645;0,6895;19884,4902;68,1999;50,26544913;10,95345479;1,40999997
18,243525;-0,1088;0,6645;0,6895;19884,4902;68,1999;50,26544913;10,95345479;1,40999997
18,246553;-0,1169;0,7725;1,9969;19884,4902;68,1999;50,26544913;10,95345479;1,40999997
18,3023;-0,1169;0,7725;1,9969;19884,4902;68,1999;50,26544913;10,95345479;1,40999997
18,307558;-0,1169;0,7725;1,9969;19884,4902;68,1999;50,26544913;10,95345479;1,40999997
18,31057;-0,3679;0,7842;2,7539;19884,4902;68,1999;50,26544913;10,95345479;1,40999997
18,361418;-0,3679;0,7842;2,7539;20427,2148;68,1999;50,26544913;10,95345479;1,40999997
18,366908;-0,3679;0,7842;2,7539;20427,2148;68,1999;50,26544913;10,95345479;1,40999997
18,369834;-0,3679;0,7842;2,7539;20427,2148;68,1999;50,26544913;10,95345479;1,40999997
18,372494;-0,0211;-0,5379;2,7942;20427,2148;68,1999;50,26544913;10,95345479;1,40999997
18,432414;-0,0211;-0,5379;2,7942;20427,2148;68,1999;50,26544913;10,95345479;1,40999997
18,436372;-1,6378;-2,0744;1,6425;20427,2148;68,1999;50,26544913;10,95345479;1,40999997
18,439833;-1,6378;-2,0744;1,6425;20427,2148;68,1999;50,26544913;10,95345479;1,40999997
18,463386;-1,6378;-2,0744;1,6425;20926,8047;71,6612;50,26544913;10,95345479;1,40999997
18,470908;-1,4714;-0,8139;-1,7769;20926,8047;71,6612;50,26544913;10,95345479;1,40999997
18,475141;-1,4714;-0,8139;-1,7769;20926,8047;71,6612;50,26544913;10,95345479;1,40999997
18,479463;-1,4714;-0,8139;-1,7769;20926,8047;71,6612;50,26544913;10,95345479;1,40999997
18,538432;-1,4714;-0,8139;-1,7769;20926,8047;71,6612;50,26544913;10,95345479;1,40999997
18,541422;-1,4714;-0,8139;-1,7769;20926,8047;71,6612;50,26546043;10,95344837;1,40999997
18,54353;-0,863;-0,5746;-2,1455;20926,8047;71,6612;50,26546043;10,95344837;1,40999997
18,600805;-0,863;-0,5746;-2,1455;20926,8047;71,6612;50,26546043;10,95344837;1,40999997
18,60607;-0,863;-0,5746;-2,1455;20926,8047;71,6612;50,26546043;10,95344837;1,40999997
18,609124;-0,9196;-0,2732;-2,3526;20926,8047;71,6612;50,26546043;10,95344837;1,40999997
18,669783;-0,9196;-0,2732;-2,3526;20926,8047;71,6612;50,26546043;10,95344837;1,40999997
18,673432;-0,9196;-0,2732;-2,3526;20180,4219;71,6612;50,26546043;10,95344837;1,40999997
18,676313;-0,9196;-0,2732;-2,3526;20180,4219;71,6612;50,26546043;10,95344837;1,40999997
18,679272;-0,9805;0,6133;-3,0305;20180,4219;71,6612;50,26546043;10,95344837;1,40999997
18,73243;-0,9805;0,6133;-3,0305;20180,4219;71,6612;50,26546043;10,95344837;1,40999997
18,736799;-0,9805;0,6133;-3,0305;20180,4219;71,6612;50,26546043;10,95344837;1,40999997
18,739588;0,0838;0,4525;0,6658;20180,4219;71,6612;50,26546043;10,95344837;1,40999997
18,770061;0,0838;0,4525;0,6658;19410,5605;71,1755;50,26546043;10,95344837;1,40999997
18,797257;0,0838;0,4525;0,6658;19410,5605;71,1755;50,26546043;10,95344837;1,40999997
18,8015;0,0838;0,4525;0,6658;19410,5605;71,1755;50,26546043;10,95344837;1,40999997
18,804757;0,0136;1,1901;2,3088;19410,5605;71,1755;50,26546043;10,95344837;1,40999997
18,863883;0,0136;1,1901;2,3088;19410,5605;71,1755;50,26546043;10,95344837;1,40999997
18,86855;0,0136;1,1901;2,3088;19410,5605;71,1755;50,26546043;10,95344837;1,40999997
18,872496;1,933;0,9945;3,2996;19410,5605;71,1755;50,26546043;10,95344837;1,40999997
18,87832;1,933;0,9945;3,2996;18892,4082;71,1755;50,26546043;10,95344837;1,40999997
18,92828;1,933;0,9945;3,2996;18892,4082;71,1755;50,26546043;10,95344837;1,40999997
18,932234;1,933;0,9945;3,2996;18892,4082;71,1755;50,26546043;10,95344837;1,40999997
18,934754;1,9661;-0,4455;2,8412;18892,4082;71,1755;50,26546043;10,95344837;1,40999997
18,971039;1,9661;-0,4455;2,8412;18892,4082;71,1755;50,26546043;10,95344837;1,40999997
18,977896;1,9661;-0,4455;2,8412;18572,9961;71,1755;50,26546043;10,95344837;1,40999997
19,030595;1,9661;-0,4455;2,8412;18572,9961;71,1755;50,26546043;10,95344837;1,40999997
19,034709;1,9661;-0,4455;2,8412;18572,9961;71,1755;50,26546043;10,95344837;1,40999997
19,037394;2,061;-1,0295;1,0934;18572,9961;71,1755;50,26546043;10,95344837;1,40999997
19,07696;2,061;-1,0295;1,0934;18264,5059;70,1148;50,26546043;10,95344837;1,40999997
19,095381;2,061;-1,0295;1,0934;18264,5059;70,1148;50,26546043;10,95344837;1,40999997
19,099511;1,1649;-0,7289;-1,8814;18264,5059;70,1148;50,26546043;10,95344837;1,40999997
19,103305;1,1649;-0,7289;-1,8814;18264,5059;70,1148;50,26546043;10,95344837;1,40999997
19,163177;1,1649;-0,7289;-1,8814;18264,5059;70,1148;50,26546043;10,95344837;1,40999997
19,167516;1,1649;-0,7289;-1,8814;18264,5059;70,1148;50,26546043;10,95344837;1,40999997
19,170537;-0,4262;0,3166;-5,0095;18264,5059;70,1148;50,26546043;10,95344837;1,40999997
19,179657;-0,4262;0,3166;-5,0095;18081,0488;70,1148;50,26546043;10,95344837;1,40999997
19,226817;-0,4262;0,3166;-5,0095;18081,0488;70,1148;50,26546043;10,95344837;1,40999997
19,230965;-0,4262;0,3166;-5,0095;18081,0488;70,1148;50,26546043;10,95344837;1,40999997
19,233944;-1,4826;0,1399;-3,0323;18081,0488;70,1148;50,26546043;10,95344837;1,40999997
19,29176;-1,4826;0,1399;-3,0323;18081,0488;70,1148;50,26546043;10,95344837;1,40999997
19,295817;-1,4826;0,1399;-3,0323;18081,0488;70,1148;50,26546043;10,95344837;1,40999997
19,298942;-0,2019;0,494;-2,0613;18081,0488;70,1148;50,26546043;10,95344837;1,40999997
19,358451;-0,2019;0,494;-2,0613;18081,0488;68,2327;50,26546043;10,95344837;1,40999997
19,363445;-0,2019;0,494;-2,0613;18081,0488;68,2327;50,26546043;10,95344837;1,40999997
19,366577;0,13;1,1346;0,8142;18081,0488;68,2327;50,26546043;10,95344837;1,40999997
19,423972;0,13;1,1346;0,8142;18081,0488;68,2327;50,26546043;10,95344837;1,40999997
19,42881;0,13;1,1346;0,8142;18081,0488;68,2327;50,26546043;10,95344837;1,40999997
19,432172;-0,0469;1,2472;4,2324;18081,0488;68,2327;50,26546043;10,95344837;1,40999997
19,48925;-0,0469;1,2472;4,2324;18081,0488;68,2327;50,26546043;10,95344837;1,40999997
19,494505;-0,0469;1,2472;4,2324;18081,0488;68,2327;50,26546043;10,95344837;1,40999997
19,49849;0,0672;1,1914;3,9579;18081,0488;68,2327;50,26546043;10,95344837;1,40999997
19,552492;0,0672;1,1914;3,9579;18081,0488;68,2327;50,26546043;10,95344837;1,40999997
19,554711;0,0672;1,1914;3,9579;18081,0488;68,2327;50,26546939;10,95343922;1,41999996
19,556198;-0,413;-1,1361;3,1606;18081,0488;68,2327;50,26546939;10,95343922;1,41999996
19,618975;-0,413;-1,1361;3,1606;18081,0488;68,2327;50,26546939;10,95343922;1,41999996
19,623129;-0,413;-1,1361;3,1606;18081,0488;68,2327;50,26546939;10,95343922;1,41999996
19,626023;-1,7842;-1,1506;-0,1377;18081,0488;68,2327;50,26546939;10,95343922;1,41999996
19,685012;-1,7842;-1,1506;-0,1377;18081,0488;69,5376;50,26546939;10,95343922;1,41999996
19,6902;-1,7842;-1,1506;-0,1377;18081,0488;69,5376;50,26546939;10,95343922;1,41999996
19,692975;-0,3187;-0,5362;-2,4038;18081,0488;69,5376;50,26546939;10,95343922;1,41999996
19,720434;-0,3187;-0,5362;-2,4038;18081,0488;69,5376;50,26546939;10,95343922;1,41999996
19,725872;-0,0775;-0,6334;-1,9265;18081,0488;69,5376;50,26546939;10,95343922;1,41999996
19,778024;-0,0775;-0,6334;-1,9265;18081,0488;69,5376;50,26546939;10,95343922;1,41999996
19,78306;-0,0775;-0,6334;-1,9265;18081,0488;69,5376;50,26546939;10,95343922;1,41999996
19,785994;-0,1415;-0,1513;-3,2739;18081,0488;69,5376;50,26546939;10,95343922;1,41999996
19,796209;-0,1415;-0,1513;-3,2739;18603,0273;69,5376;50,26546939;10,95343922;1,41999996
19,84399;-0,9756;-0,0171;-1,3284;18603,0273;69,5376;50,26546939;10,95343922;1,41999996
19,849237;-0,9756;-0,0171;-1,3284;18603,0273;69,5376;50,26546939;10,95343922;1,41999996
19,852437;-0,9756;-0,0171;-1,3284;18603,0273;69,5376;50,26546939;10,95343922;1,41999996
19,896567;-0,9756;-0,0171;-1,3284;19015,8027;69,5376;50,26546939;10,95343922;1,41999996
19,908978;-0,9756;-0,0171;-1,3284;19015,8027;69,5376;50,26546939;10,95343922;1,41999996
19,912193;-0,9756;-0,0171;-1,3284;19015,8027;69,5376;50,26546939;10,95343922;1,41999996
19,914975;-0,3881;0,2734;1,1162;19015,8027;69,5376;50,26546939;10,95343922;1,41999996
19,975478;-0,3881;0,2734;1,1162;19015,8027;68,9413;50,26546939;10,95343922;1,41999996
19,980335;-0,3881;0,2734;1,1162;19015,8027;68,9413;50,26546939;10,95343922;1,41999996
19,985312;1,1539;-0,4523;3,7787;19015,8027;68,9413;50,26546939;10,95343922;1,41999996
19,998683;1,1539;-0,4523;3,7787;19349,9551;68,9413;50,26546939;10,95343922;1,41999996
20,039157;1,1539;-0,4523;3,7787;19349,9551;68,9413;50,26546939;10,95343922;1,41999996
20,044534;1,1539;-0,4523;3,7787;19349,9551;68,9413;50,26546939;10,95343922;1,41999996
20,047262;1,738;-0,4269;2,317;19349,9551;68,9413;50,26546939;10,95343922;1,41999996
20,105142;1,738;-0,4269;2,317;19349,9551;68,9413;50,26546939;10,95343922;1,41999996
20,110561;1,738;-0,4269;2,317;19349,9551;68,9413;50,26546939;10,95343922;1,41999996
20,113866;1,4428;-1,0705;2,0138;19349,9551;68,9413;50,26546939;10,95343922;1,41999996
20,172081;1,4428;-1,0705;2,0138;19349,9551;68,9413;50,26546939;10,95343922;1,41999996
20,176574;1,4428;-1,0705;2,0138;19349,9551;68,9413;50,26546939;10,95343922;1,41999996
20,180232;2,0764;-1,1807;-0,51;19349,9551;68,9413;50,26546939;10,95343922;1,41999996
20,203559;2,0764;-1,1807;-0,51;19048,5625;68,9413;50,26546939;10,95343922;1,41999996
20,236302;2,0764;-1,1807;-0,51;19048,5625;68,9413;50,26546939;10,95343922;1,41999996
20,240535;2,0764;-1,1807;-0,51;19048,5625;68,9413;50,26546939;10,95343922;1,41999996
20,243727;-0,177;-0,4445;-4,0272;19048,5625;68,9413;50,26546939;10,95343922;1,41999996
20,302741;-0,177;-0,4445;-4,0272;19048,5625;71,6093;50,26546939;10,95343922;1,41999996
20,307617;-0,177;-0,4445;-4,0272;19048,5625;71,6093;50,26546939;10,95343922;1,41999996
20,311132;-0,8957;-0,0914;-5,3053;19048,5625;71,6093;50,26546939;10,95343922;1,41999996
20,314813;-0,8957;-0,0914;-5,3053;18776,6543;71,6093;50,26546939;10,95343922;1,41999996
20,366209;-0,8957;-0,0914;-5,3053;18776,6543;71,6093;50,26546939;10,95343922;1,41999996
20,370339;-0,8957;-0,0914;-5,3053;18776,6543;71,6093;50,26546939;10,95343922;1,41999996
20,373052;-0,9455;0,7237;-3,559;18776,6543;71,6093;50,26546939;10,95343922;1,41999996
20,431356;-0,9455;0,7237;-3,559;18776,6543;71,6093;50,26546939;10,95343922;1,41999996
20,435426;-0,2651;1,6856;0,5937;18776,6543;71,6093;50,26546939;10,95343922;1,41999996
20,439062;-0,2651;1,6856;0,5937;18776,6543;71,6093;50,26546939;10,95343922;1,41999996
20,46943;-0,2651;1,6856;0,5937;18776,6543;71,6093;50,26546939;10,95343922;1,41999996
20,512214;-0,2651;1,6856;0,5937;18422,3008;71,6093;50,26546939;10,95343922;1,41999996
20,539236;-0,2651;1,6856;0,5937;18422,3008;71,6093;50,26546939;10,95343922;1,41999996
20,540968;-0,2651;1,6856;0,5937;18422,3008;71,6093;50,26547893;10,95342589;1,38999999
20,543326;-0,2899;1,7766;5,3603;18422,3008;71,6093;50,26547893;10,95342589;1,38999999
20,600406;-0,2899;1,7766;5,3603;18422,3008;70,2748;50,26547893;10,95342589;1,38999999
20,606248;-0,2899;1,7766;5,3603;18422,3008;70,2748;50,26547893;10,95342589;1,38999999
20,609849;0,007;1,1784;5,3846;18422,3008;70,2748;50,26547893;10,95342589;1,38999999
20,666135;0,007;1,1784;5,3846;18422,3008;70,2748;50,26547893;10,95342589;1,38999999
20,671006;0,007;1,1784;5,3846;18422,3008;70,2748;50,26547893;10,95342589;1,38999999
20,674418;0,2344;-0,9978;2,1027;18422,3008;70,2748;50,26547893;10,95342589;1,38999999
20,713797;0,2344;-0,9978;2,1027;18809,9609;70,2748;50,26547893;10,95342589;1,38999999
20,734513;0,2344;-0,9978;2,1027;18809,9609;70,2748;50,26547893;10,95342589;1,38999999
20,73846;-1,5993;-1,068;-1,5756;18809,9609;70,2748;50,26547893;10,95342589;1,38999999
20,742592;-1,5993;-1,068;-1,5756;18809,9609;70,2748;50,26547893;10,95342589;1,38999999
20,795684;-0,285;-1,4709;-0,3826;18809,9609;70,2748;50,26547893;10,95342589;1,38999999
20,801772;-0,285;-1,4709;-0,3826;18809,9609;70,2748;50,26547893;10,95342589;1,38999999
20,805081;-0,285;-1,4709;-0,3826;18809,9609;70,2748;50,26547893;10,95342589;1,38999999
20,817155;-0,285;-1,4709;-0,3826;19404,5547;70,2748;50,26547893;10,95342589;1,38999999
20,861158;-0,285;-1,4709;-0,3826;19404,5547;68,0662;50,26547893;10,95342589;1,38999999
20,865138;-0,285;-1,4709;-0,3826;19404,5547;68,0662;50,26547893;10,95342589;1,38999999
20,867498;0,139;-0,6859;-3,3063;19404,5547;68,0662;50,26547893;10,95342589;1,38999999
20,918737;0,139;-0,6859;-3,3063;19812,418;68,0662;50,26547893;10,95342589;1,38999999
20,926427;0,139;-0,6859;-3,3063;19812,418;68,0662;50,26547893;10,95342589;1,38999999
20,9301;0,139;-0,6859;-3,3063;19812,418;68,0662;50,26547893;10,95342589;1,38999999
20,932793;0,3078;0,4657;-2,4592;19812,418;68,0662;50,26547893;10,95342589;1,38999999
20,969621;0,3078;0,4657;-2,4592;19812,418;68,0662;50,26547893;10,95342589;1,38999999
20,973423;-0,6199;0,7865;-1,5287;19812,418;68,0662;50,26547893;10,95342589;1,38999999
21,020793;-0,6199;0,7865;-1,5287;20195,709;68,0662;50,26547893;10,95342589;1,38999999
21,028027;-0,6199;0,7865;-1,5287;20195,709;68,0662;50,26547893;10,95342589;1,38999999
21,031393;-0,6199;0,7865;-1,5287;20195,709;68,0662;50,26547893;10,95342589;1,38999999
21,0342;-0,9602;0,7125;1,2311;20195,709;68,0662;50,26547893;10,95342589;1,38999999
21,094759;-0,9602;0,7125;1,2311;20195,709;68,0662;50,26547893;10,95342589;1,38999999
21,099059;-0,9602;0,7125;1,2311;20195,709;68,0662;50,26547893;10,95342589;1,38999999
21,10169;-0,13;-0,3652;2,0655;20195,709;68,0662;50,26547893;10,95342589;1,38999999
21,122013;-0,13;-0,3652;2,0655;20985,7734;68,0662;50,26547893;10,95342589;1,38999999
21,159989;-0,13;-0,3652;2,0655;20985,7734;68,4238;50,26547893;10,95342589;1,38999999
21,163707;-0,13;-0,3652;2,0655;20985,7734;68,4238;50,26547893;10,95342589;1,38999999
21,165705;1,0755;-0,042;1,4681;20985,7734;68,4238;50,26547893;10,95342589;1,38999999
21,228251;1,0755;-0,042;1,4681;20985,7734;68,4238;50,26547893;10,95342589;1,38999999
21,232732;1,0755;-0,042;1,4681;20985,7734;68,4238;50,26547893;10,95342589;1,38999999
21,235217;1,0755;-0,042;1,4681;21385,4453;68,4238;50,26547893;10,95342589;1,38999999
21,238495;0,8229;-1,5889;2,6967;21385,4453;68,4238;50,26547893;10,95342589;1,38999999
21,290801;0,8229;-1,5889;2,6967;21385,4453;68,4238;50,26547893;10,95342589;1,38999999
21,295064;0,8229;-1,5889;2,6967;21385,4453;68,4238;50,26547893;10,95342589;1,38999999
21,298927;1,0682;-1,5571;1,7678;21385,4453;68,4238;50,26547893;10,95342589;1,38999999
21,328078;1,0682;-1,5571;1,7678;21067,6738;68,4238;50,26547893;10,95342589;1,38999999
21,356024;1,0682;-1,5571;1,7678;21067,6738;68,4238;50,26547893;10,95342589;1,38999999
21,359463;1,0682;-1,5571;1,7678;21067,6738;68,4238;50,26547893;10,95342589;1,38999999
21,361296;0,0088;-0,2908;-3,0918;21067,6738;68,4238;50,26547893;10,95342589;1,38999999
21,421635;0,0088;-0,2908;-3,0918;21067,6738;68,4238;50,26547893;10,95342589;1,38999999
21,426256;0,0088;-0,2908;-3,0918;21067,6738;68,4238;50,26547893;10,95342589;1,38999999
21,429456;-0,3916;-0,0676;-4,9098;21067,6738;68,4238;50,26547893;10,95342589;1,38999999
21,434625;-0,3916;-0,0676;-4,9098;20212,6367;68,4238;50,26547893;10,95342589;1,38999999
21,487422;-0,3916;-0,0676;-4,9098;20212,6367;68,984;50,26547893;10,95342589;1,38999999
21,492545;-0,3916;-0,0676;-4,9098;20212,6367;68,984;50,26547893;10,95342589;1,38999999
21,498346;-0,7957;0,5068;-3,6706;20212,6367;68,984;50,26547893;10,95342589;1,38999999
21,535084;-0,7957;0,5068;-3,6706;19603,8457;68,984;50,26547893;10,95342589;1,38999999
21,551861;-0,7957;0,5068;-3,6706;19603,8457;68,984;50,26548852;10,95341264;1,36000001
21,553307;-0,7957;0,5068;-3,6706;19603,8457;68,984;50,26548852;10,95341264;1,36000001
21,554323;-0,355;1,0013;-0,2534;19603,8457;68,984;50,26548852;10,95341264;1,36000001
21,617775;-0,355;1,0013;-0,2534;19603,8457;68,984;50,26548852;10,95341264;1,36000001
21,619224;-0,355;1,0013;-0,2534;19603,8457;68,984;50,26548852;10,95341264;1,36000001
21,619968;-0,3317;1,4082;3,2109;19603,8457;68,984;50,26548852;10,95341264;1,36000001
21,640642;-0,3317;1,4082;3,2109;19398,002;68,984;50,26548852;10,95341264;1,36000001
21,682077;-0,3317;1,4082;3,2109;19398,002;68,984;50,26548852;10,95341264;1,36000001
21,684876;-0,3317;1,4082;3,2109;19398,002;68,984;50,26548852;10,95341264;1,36000001
21,687284;-0,1888;1,9723;4,272;19398,002;68,984;50,26548852;10,95341264;1,36000001
21,718304;-0,1888;1,9723;4,272;19398,002;68,984;50,26548852;10,95341264;1,36000001
21,785869;-0,1888;1,9723;4,272;19398,002;72,5858;50,26548852;10,95341264;1,36000001
21,790161;0,685;-0,0346;3,8726;19398,002;72,5858;50,26548852;10,95341264;1,36000001
21,793963;0,685;-0,0346;3,8726;19398,002;72,5858;50,26548852;10,95341264;1,36000001
21,851565;0,685;-0,0346;3,8726;19398,002;72,5858;50,26548852;10,95341264;1,36000001
21,855772;0,685;-0,0346;3,8726;19398,002;72,5858;50,26548852;10,95341264;1,36000001
21,858736;0,0023;-1,4869;0,1231;19398,002;72,5858;50,26548852;10,95341264;1,36000001
21,915993;0,0023;-1,4869;0,1231;19398,002;72,5858;50,26548852;10,95341264;1,36000001
21,919722;0,0023;-1,4869;0,1231;19398,002;72,5858;50,26548852;10,95341264;1,36000001
21,923026;-0,4506;-0,7567;-1,9738;19398,002;72,5858;50,26548852;10,95341264;1,36000001
21,940531;-0,4506;-0,7567;-1,9738;19846,2695;72,5858;50,26548852;10,95341264;1,36000001
21,983231;-0,4506;-0,7567;-1,9738;19846,2695;72,5858;50,26548852;10,95341264;1,36000001
21,986817;-0,4506;-0,7567;-1,9738;19846,2695;72,5858;50,26548852;10,95341264;1,36000001
21,989804;0,1836;-0,8568;-2,3564;19846,2695;72,5858;50,26548852;10,95341264;1,36000001
22,043369;0,1836;-0,8568;-2,3564;20122,5469;72,5858;50,26548852;10,95341264;1,36000001
22,047634;0,1836;-0,8568;-2,3564;20122,5469;72,5858;50,26548852;10,95341264;1,36000001
22,050563;0,0176;-0,0927;-2,2371;20122,5469;72,5858;50,26548852;10,95341264;1,36000001
22,053838;0,0176;-0,0927;-2,2371;20122,5469;72,5858;50,26548852;10,95341264;1,36000001
22,112178;0,0176;-0,0927;-2,2371;20122,5469;70,2973;50,26548852;10,95341264;1,36000001
22,116682;0,0176;-0,0927;-2,2371;20122,5469;70,2973;50,26548852;10,95341264;1,36000001
22,11931;-1,1234;1,3143;-3,2855;20122,5469;70,2973;50,26548852;10,95341264;1,36000001
22,144935;-1,1234;1,3143;-3,2855;20800,1328;70,2973;50,26548852;10,95341264;1,36000001
22,179268;-1,1234;1,3143;-3,2855;20800,1328;70,2973;50,26548852;10,95341264;1,36000001
22,18394;-1,1234;1,3143;-3,2855;20800,1328;70,2973;50,26548852;10,95341264;1,36000001
22,187067;-0,988;0,9394;1,3726;20800,1328;70,2973;50,26548852;10,95341264;1,36000001
22,220071;-0,988;0,9394;1,3726;20800,1328;70,2973;50,26548852;10,95341264;1,36000001
22,22489;-0,3376;0,2874;2,8185;20800,1328;70,2973;50,26548852;10,95341264;1,36000001
22,248169;-0,3376;0,2874;2,8185;21330,8457;70,2973;50,26548852;10,95341264;1,36000001
22,280771;-0,3376;0,2874;2,8185;21330,8457;70,2973;50,26548852;10,95341264;1,36000001
22,287046;-0,3376;0,2874;2,8185;21330,8457;70,2973;50,26548852;10,95341264;1,36000001
22,290388;1,5999;-0,4189;3,1351;21330,8457;70,2973;50,26548852;10,95341264;1,36000001
22,346236;1,5999;-0,4189;3,1351;21330,8457;70,2973;50,26548852;10,95341264;1,36000001
22,350886;1,5999;-0,4189;3,1351;21330,8457;70,2973;50,26548852;10,95341264;1,36000001
22,354228;0,9825;-1,3909;2,329;21330,8457;70,2973;50,26548852;10,95341264;1,36000001
22,4119;0,9825;-1,3909;2,329;21330,8457;69,4472;50,26548852;10,95341264;1,36000001
22,416312;0,9825;-1,3909;2,329;21330,8457;69,4472;50,26548852;10,95341264;1,36000001
22,419411;1,6947;-1,273;-0,1383;21330,8457;69,4472;50,26548852;10,95341264;1,36000001
22,452459;1,6947;-1,273;-0,1383;20661,9941;69,4472;50,26548852;10,95341264;1,36000001
22,478654;1,6947;-1,273;-0,1383;20661,9941;69,4472;50,26548852;10,95341264;1,36000001
22,483154;1,6947;-1,273;-0,1383;20661,9941;69,4472;50,26548852;10,95341264;1,36000001
22,486489;1,4946;-0,2541;-2,2916;20661,9941;69,4472;50,26548852;10,95341264;1,36000001
22,545094;1,4946;-0,2541;-2,2916;20661,9941;69,4472;50,26548852;10,95341264;1,36000001
22,547986;1,4946;-0,2541;-2,2916;20661,9941;69,4472;50,26549932;10,95339993;1,40999997
22,550353;-0,6953;0,2903;-4,3663;20661,9941;69,4472;50,26549932;10,95339993;1,40999997
22,555469;-0,6953;0,2903;-4,3663;19888,3125;69,4472;50,26549932;10,95339993;1,40999997
22,608274;-0,6953;0,2903;-4,3663;19888,3125;69,4472;50,26549932;10,95339993;1,40999997
22,613137;-0,6953;0,2903;-4,3663;19888,3125;69,4472;50,26549932;10,95339993;1,40999997
22,616422;-1,1279;0,6118;-3,6521;19888,3125;69,4472;50,26549932;10,95339993;1,40999997
22,656781;-1,1279;0,6118;-3,6521;19622,957;71,2915;50,26549932;10,95339993;1,40999997
22,675015;-1,1279;0,6118;-3,6521;19622,957;71,2915;50,26549932;10,95339993;1,40999997
22,679168;-1,1279;0,6118;-3,6521;19622,957;71,2915;50,26549932;10,95339993;1,40999997
22,682079;-0,3521;0,8699;-1,5135;19622,957;71,2915;50,26549932;10,95339993;1,40999997
22,739812;-0,3521;0,8699;-1,5135;19622,957;71,2915;50,26549932;10,95339993;1,40999997
22,744464;-0,3521;0,8699;-1,5135;19622,957;71,2915;50,26549932;10,95339993;1,40999997
22,747897;-0,5614;0,9769;2,5412;19622,957;71,2915;50,26549932;10,95339993;1,40999997
22,804752;-0,5614;0,9769;2,5412;19622,957;71,2915;50,26549932;10,95339993;1,40999997
22,808792;-0,5614;0,9769;2,5412;19622,957;71,2915;50,26549932;10,95339993;1,40999997
22,81176;-0,0825;1,5437;3,6796;19622,957;71,2915;50,26549932;10,95339993;1,40999997
22,863375;-0,0825;1,5437;3,6796;19381,623;71,2915;50,26549932;10,95339993;1,40999997
22,869592;0,9059;0,9456;4,1454;19381,623;71,2915;50,26549932;10,95339993;1,40999997
22,873637;0,9059;0,9456;4,1454;19381,623;71,2915;50,26549932;10,95339993;1,40999997
22,877096;0,9059;0,9456;4,1454;19381,623;71,2915;50,26549932;10,95339993;1,40999997
22,934913;0,9059;0,9456;4,1454;19381,623;71,2915;50,26549932;10,95339993;1,40999997
22,9391;0,9059;0,9456;4,1454;19381,623;71,2915;50,26549932;10,95339993;1,40999997
22,941647;-0,3095;-1,4629;3,4253;19381,623;71,2915;50,26549932;10,95339993;1,40999997
22,966232;-0,3095;-1,4629;3,4253;19836,4414;73,6792;50,26549932;10,95339993;1,40999997
22,971229;-0,3095;-1,4629;3,4253;19836,4414;73,6792;50,26549932;10,95339993;1,40999997
23,028296;-0,3095;-1,4629;3,4253;19836,4414;73,6792;50,26549932;10,95339993;1,40999997
23,03461;-0,3095;-1,4629;3,4253;19836,4414;73,6792;50,26549932;10,95339993;1,40999997
23,037323;-1,2497;-1,7925;-0,5991;19836,4414;73,6792;50,26549932;10,95339993;1,40999997
23,069391;-1,2497;-1,7925;-0,5991;20486,1836;73,6792;50,26549932;10,95339993;1,40999997
23,094191;-1,2497;-1,7925;-0,5991;20486,1836;73,6792;50,26549932;10,95339993;1,40999997
23,09861;-1,2497;-1,7925;-0,5991;20486,1836;73,6792;50,26549932;10,95339993;1,40999997
23,101749;-0,5198;-1,0722;-2,2109;20486,1836;73,6792;50,26549932;10,95339993;1,40999997
23,159135;-0,5198;-1,0722;-2,2109;20486,1836;73,6792;50,26549932;10,95339993;1,40999997
23,164846;0,2503;-0,4365;-3,8676;20486,1836;73,6792;50,26549932;10,95339993;1,40999997
23,170779;0,2503;-0,4365;-3,8676;20486,1836;73,6792;50,26549932;10,95339993;1,40999997
23,174349;0,2503;-0,4365;-3,8676;21228,7441;73,6792;50,26549932;10,95339993;1,40999997
23,22575;0,2503;-0,4365;-3,8676;21228,7441;73,6792;50,26549932;10,95339993;1,40999997
23,229642;0,2503;-0,4365;-3,8676;21228,7441;73,6792;50,26549932;10,95339993;1,40999997
23,232252;-0,7287;0,2141;-3,8529;21228,7441;73,6792;50,26549932;10,95339993;1,40999997
23,271218;-0,7287;0,2141;-3,8529;21893,2266;69,9986;50,26549932;10,95339993;1,40999997
23,293287;-1,0931;0,7989;-2,0937;21893,2266;69,9986;50,26549932;10,95339993;1,40999997
23,29813;-1,0931;0,7989;-2,0937;21893,2266;69,9986;50,26549932;10,95339993;1,40999997
23,300761;-1,0931;0,7989;-2,0937;21893,2266;69,9986;50,26549932;10,95339993;1,40999997
23,354546;-1,0931;0,7989;-2,0937;21893,2266;69,9986;50,26549932;10,95339993;1,40999997
23,358555;-0,067;0,6494;1,9866;21893,2266;69,9986;50,26549932;10,95339993;1,40999997
23,362195;-0,067;0,6494;1,9866;21893,2266;69,9986;50,26549932;10,95339993;1,40999997
23,374142;-0,067;0,6494;1,9866;22635,2402;69,9986;50,26549932;10,95339993;1,40999997
23,420393;-0,067;0,6494;1,9866;22635,2402;69,9986;50,26549932;10,95339993;1,40999997
23,425044;-0,067;0,6494;1,9866;22635,2402;69,9986;50,26549932;10,95339993;1,40999997
23,428062;1,2958;-0,3262;2,6039;22635,2402;69,9986;50,26549932;10,95339993;1,40999997
23,48609;1,2958;-0,3262;2,6039;22635,2402;69,9986;50,26549932;10,95339993;1,40999997
23,490148;1,2958;-0,3262;2,6039;22635,2402;69,9986;50,26549932;10,95339993;1,40999997
23,492934;1,3585;-0,8785;3,454;22635,2402;69,9986;50,26549932;10,95339993;1,40999997
23,551351;1,3585;-0,8785;3,454;22635,2402;69,9986;50,26549932;10,95339993;1,40999997
23,553418;1,3585;-0,8785;3,454;22635,2402;69,9986;50,26550884;10,95338646;1,38
23,555272;1,0908;-1,5429;4,125;22635,2402;69,9986;50,26550884;10,95338646;1,38
23,57743;1,0908;-1,5429;4,125;22390,0859;70,4348;50,26550884;10,95338646;1,38
23,616288;1,0908;-1,5429;4,125;22390,0859;70,4348;50,26550884;10,95338646;1,38
23,620585;1,0908;-1,5429;4,125;22390,0859;70,4348;50,26550884;10,95338646;1,38
23,623348;1,7419;-0,4823;0,087;22390,0859;70,4348;50,26550884;10,95338646;1,38
23,681304;1,7419;-0,4823;0,087;21715,7754;70,4348;50,26550884;10,95338646;1,38
23,688416;1,7419;-0,4823;0,087;21715,7754;70,4348;50,26550884;10,95338646;1,38
23,691891;0,4861;-0,042;-3,4697;21715,7754;70,4348;50,26550884;10,95338646;1,38
23,696216;0,4861;-0,042;-3,4697;21715,7754;70,4348;50,26550884;10,95338646;1,38
23,719866;0,4861;-0,042;-3,4697;21715,7754;70,4348;50,26550884;10,95338646;1,38
23,726905;-0,1534;-0,5341;-4,5089;21715,7754;70,4348;50,26550884;10,95338646;1,38
23,784329;-0,1534;-0,5341;-4,5089;21415,4746;70,4348;50,26550884;10,95338646;1,38
23,789475;-0,1534;-0,5341;-4,5089;21415,4746;70,4348;50,26550884;10,95338646;1,38
23,79288;-0,1534;-0,5341;-4,5089;21415,4746;70,4348;50,26550884;10,95338646;1,38
23,796061;-0,2964;0,3136;-4,1464;21415,4746;70,4348;50,26550884;10,95338646;1,38
23,851405;-0,2964;0,3136;-4,1464;21415,4746;70,4348;50,26550884;10,95338646;1,38
23,856078;-0,8069;1,3749;-0,753;21415,4746;70,4348;50,26550884;10,95338646;1,38
23,860504;-0,8069;1,3749;-0,753;21415,4746;70,4348;50,26550884;10,95338646;1,38
23,915428;-0,8069;1,3749;-0,753;21415,4746;72,7219;50,26550884;10,95338646;1,38
23,920204;-0,8069;1,3749;-0,753;21415,4746;72,7219;50,26550884;10,95338646;1,38
23,923267;-1,2018;1,4123;3,3866;21415,4746;72,7219;50,26550884;10,95338646;1,38
23,98103;-1,2018;1,4123;3,3866;21415,4746;72,7219;50,26550884;10,95338646;1,38
23,986372;-1,2018;1,4123;3,3866;21415,4746;72,7219;50,26550884;10,95338646;1,38
23,989324;-0,4001;1,2204;4,3612;21415,4746;72,7219;50,26550884;10,95338646;1,38
24,047271;-0,4001;1,2204;4,3612;21415,4746;72,7219;50,26550884;10,95338646;1,38
24,053994;-0,4001;1,2204;4,3612;21415,4746;72,7219;50,26550884;10,95338646;1,38
24,056934;-0,2054;-0,6177;3,5316;21415,4746;72,7219;50,26550884;10,95338646;1,38
24,111152;-0,2054;-0,6177;3,5316;21415,4746;72,7219;50,26550884;10,95338646;1,38
24,11515;-0,2054;-0,6177;3,5316;21415,4746;72,7219;50,26550884;10,95338646;1,38
24,11812;-1,0705;-1,4514;0,3803;21415,4746;72,7219;50,26550884;10,95338646;1,38
24,178818;-1,0705;-1,4514;0,3803;21415,4746;71,0579;50,26550884;10,95338646;1,38
24,184035;-1,0705;-1,4514;0,3803;21415,4746;71,0579;50,26550884;10,95338646;1,38
24,187672;-0,8334;-0,7376;-1,6683;21415,4746;71,0579;50,26550884;10,95338646;1,38
24,192318;-0,8334;-0,7376;-1,6683;21633,875;71,0579;50,26550884;10,95338646;1,38
24,219965;-0,8334;-0,7376;-1,6683;21633,875;71,0579;50,26550884;10,95338646;1,38
24,279438;-0,8334;-0,7376;-1,6683;21633,875;71,0579;50,26550884;10,95338646;1,38
24,284188;-0,8334;-0,7376;-1,6683;21633,875;71,0579;50,26550884;10,95338646;1,38
24,286884;0,3546;-0,5664;-2,2914;21633,875;71,0579;50,26550884;10,95338646;1,38
24,34632;0,3546;-0,5664;-2,2914;21633,875;71,0579;50,26550884;10,95338646;1,38
24,351298;0,3546;-0,5664;-2,2914;21633,875;71,0579;50,26550884;10,95338646;1,38
24,354831;0,0519;-0,1124;-2,9474;21633,875;71,0579;50,26550884;10,95338646;1,38
24,395654;0,0519;-0,1124;-2,9474;22014,4395;71,0579;50,26550884;10,95338646;1,38
24,411074;-0,2858;0,7115;-2,7245;22014,4395;71,0579;50,26550884;10,95338646;1,38
24,41638;-0,2858;0,7115;-2,7245;22014,4395;71,0579;50,26550884;10,95338646;1,38
24,419429;-0,2858;0,7115;-2,7245;22014,4395;71,0579;50,26550884;10,95338646;1,38
24,477064;-0,2858;0,7115;-2,7245;22014,4395;70,8635;50,26550884;10,95338646;1,38
24,481987;-0,7848;0,216;0,759;22014,4395;70,8635;50,26550884;10,95338646;1,38
24,486815;-0,7848;0,216;0,759;22014,4395;70,8635;50,26550884;10,95338646;1,38
24,510876;-0,7848;0,216;0,759;22485,0898;70,8635;50,26550884;10,95338646;1,38
24,543759;-0,7848;0,216;0,759;22485,0898;70,8635;50,26550884;10,95338646;1,38
24,545765;-0,7848;0,216;0,759;22485,0898;70,8635;50,26551834;10,95337184;1,39999998
24,547666;-0,5851;-0,115;2,0399;22485,0898;70,8635;50,26551834;10,95337184;1,39999998
24,606431;-0,5851;-0,115;2,0399;22485,0898;70,8635;50,26551834;10,95337184;1,39999998
24,610811;-0,5851;-0,115;2,0399;22485,0898;70,8635;50,26551834;10,95337184;1,39999998
24,61387;1,2219;-0,1942;3,1749;22485,0898;70,8635;50,26551834;10,95337184;1,39999998
24,673059;1,2219;-0,1942;3,1749;22485,0898;70,8635;50,26551834;10,95337184;1,39999998
24,677341;1,2219;-0,1942;3,1749;22485,0898;70,8635;50,26551834;10,95337184;1,39999998
24,682;1,557;-1,0036;3,0505;22485,0898;70,8635;50,26551834;10,95337184;1,39999998
24,738168;1,557;-1,0036;3,0505;22485,0898;70,8635;50,26551834;10,95337184;1,39999998
24,742895;1,557;-1,0036;3,0505;22485,0898;70,8635;50,26551834;10,95337184;1,39999998
24,745888;0,7817;-1,2813;0,6812;22485,0898;70,8635;50,26551834;10,95337184;1,39999998
24,803367;0,7817;-1,2813;0,6812;22485,0898;71,9369;50,26551834;10,95337184;1,39999998
24,808327;0,7817;-1,2813;0,6812;22485,0898;71,9369;50,26551834;10,95337184;1,39999998
24,8111;0,3717;-0,3788;-1,539;22485,0898;71,9369;50,26551834;10,95337184;1,39999998
24,814533;0,3717;-0,3788;-1,539;21864,2871;71,9369;50,26551834;10,95337184;1,39999998
24,867583;0,3717;-0,3788;-1,539;21864,2871;71,9369;50,26551834;10,95337184;1,39999998
24,871587;0,3717;-0,3788;-1,539;21864,2871;71,9369;50,26551834;10,95337184;1,39999998
24,87414;-0,5224;0,1873;-4,2196;21864,2871;71,9369;50,26551834;10,95337184;1,39999998
24,907383;-0,5224;0,1873;-4,2196;21290,4414;71,9369;50,26551834;10,95337184;1,39999998
24,932954;-0,5224;0,1873;-4,2196;21290,4414;71,9369;50,26551834;10,95337184;1,39999998
24,936946;-0,5224;0,1873;-4,2196;21290,4414;71,9369;50,26551834;10,95337184;1,39999998
24,940376;-0,2932;0,6736;-3,5986;21290,4414;71,9369;50,26551834;10,95337184;1,39999998
24,970578;-0,2932;0,6736;-3,5986;21290,4414;71,9369;50,26551834;10,95337184;1,39999998
24,975189;0,1273;1,3253;-1,8921;21290,4414;71,9369;50,26551834;10,95337184;1,39999998
25,010274;0,1273;1,3253;-1,8921;20875,4805;71,9369;50,26551834;10,95337184;1,39999998
25,036454;0,1273;1,3253;-1,8921;20875,4805;71,9369;50,26551834;10,95337184;1,39999998
25,040648;0,1273;1,3253;-1,8921;20875,4805;71,9369;50,26551834;10,95337184;1,39999998
25,043725;-0,0649;1,1657;2,0159;20875,4805;71,9369;50,26551834;10,95337184;1,39999998
25,101102;-0,0649;1,1657;2,0159;20875,4805;71,9063;50,26551834;10,95337184;1,39999998
25,105237;-0,0649;1,1657;2,0159;20875,4805;71,9063;50,26551834;10,95337184;1,39999998
25,107897;0,4403;1,49;2,8206;20875,4805;71,9063;50,26551834;10,95337184;1,39999998
25,16735;0,4403;1,49;2,8206;20875,4805;71,9063;50,26551834;10,95337184;1,39999998
25,171338;0,4403;1,49;2,8206;20875,4805;71,9063;50,26551834;10,95337184;1,39999998
25,174102;0,1539;1,3408;2,2016;20875,4805;71,9063;50,26551834;10,95337184;1,39999998
25,212657;0,1539;1,3408;2,2016;20624,3203;71,9063;50,26551834;10,95337184;1,39999998
25,232047;0,1539;1,3408;2,2016;20624,3203;71,9063;50,26551834;10,95337184;1,39999998
25,235618;-0,8778;-1,8966;4,5903;20624,3203;71,9063;50,26551834;10,95337184;1,39999998
25,238862;-0,8778;-1,8966;4,5903;20624,3203;71,9063;50,26551834;10,95337184;1,39999998
25,297786;-0,8778;-1,8966;4,5903;20624,3203;71,9063;50,26551834;10,95337184;1,39999998
25,301347;-0,8862;-1,967;1,1174;20624,3203;71,9063;50,26551834;10,95337184;1,39999998
25,305921;-0,8862;-1,967;1,1174;20624,3203;71,9063;50,26551834;10,95337184;1,39999998
25,31555;-0,8862;-1,967;1,1174;20839,4434;71,9063;50,26551834;10,95337184;1,39999998
25,362839;-0,8862;-1,967;1,1174;20839,4434;69,6043;50,26551834;10,95337184;1,39999998
25,367594;-0,8862;-1,967;1,1174;20839,4434;69,6043;50,26551834;10,95337184;1,39999998
25,371172;0,0662;-0,7349;-1,9885;20839,4434;69,6043;50,26551834;10,95337184;1,39999998
25,418248;0,0662;-0,7349;-1,9885;21175,2344;69,6043;50,26551834;10,95337184;1,39999998
25,427914;0,0662;-0,7349;-1,9885;21175,2344;69,6043;50,26551834;10,95337184;1,39999998
25,431399;0,0662;-0,7349;-1,9885;21175,2344;69,6043;50,26551834;10,95337184;1,39999998
25,43456;0,2671;-0,4648;-3,717;21175,2344;69,6043;50,26551834;10,95337184;1,39999998
25,470566;0,2671;-0,4648;-3,717;21175,2344;69,6043;50,26551834;10,95337184;1,39999998
25,474562;-0,8609;-0,169;-3,4684;21175,2344;69,6043;50,26551834;10,95337184;1,39999998
25,478202;-0,8609;-0,169;-3,4684;21175,2344;69,6043;50,26551834;10,95337184;1,39999998
25,520473;-0,8609;-0,169;-3,4684;21601,6621;69,6043;50,26551834;10,95337184;1,39999998
25,530701;-0,8609;-0,169;-3,4684;21601,6621;69,6043;50,26552475;10,95335749;1,35000002
25,532789;-0,8609;-0,169;-3,4684;21601,6621;69,6043;50,26552475;10,95335749;1,35000002
25,534265;-0,0688;1,317;-3,3446;21601,6621;69,6043;50,26552475;10,95335749;1,35000002
25,596465;-0,0688;1,317;-3,3446;21601,6621;69,6043;50,26552475;10,95335749;1,35000002
25,600416;-0,0688;1,317;-3,3446;21601,6621;69,6043;50,26552475;10,95335749;1,35000002
25,603851;0,2674;1,3248;0,1243;21601,6621;69,6043;50,26552475;10,95335749;1,35000002
25,622006;0,2674;1,3248;0,1243;21225,4668;69,6043;50,26552475;10,95335749;1,35000002
25,661245;0,2674;1,3248;0,1243;21225,4668;71,6929;50,26552475;10,95335749;1,35000002
25,666071;0,2674;1,3248;0,1243;21225,4668;71,6929;50,26552475;10,95335749;1,35000002
25,669301;-0,7538;-0,8695;4,5285;21225,4668;71,6929;50,26552475;10,95335749;1,35000002
25,725436;-0,7538;-0,8695;4,5285;20723,1465;71,6929;50,26552475;10,95335749;1,35000002
25,730622;-0,7538;-0,8695;4,5285;20723,1465;71,6929;50,26552475;10,95335749;1,35000002
25,733898;-0,7538;-0,8695;4,5285;20723,1465;71,6929;50,26552475;10,95335749;1,35000002
25,736983;0,884;-0,905;3,3892;20723,1465;71,6929;50,26552475;10,95335749;1,35000002
25,792115;0,884;-0,905;3,3892;20723,1465;71,6929;50,26552475;10,95335749;1,35000002
25,796154;0,884;-0,905;3,3892;20723,1465;71,6929;50,26552475;10,95335749;1,35000002
25,799309;1,7712;-1,9598;3,1952;20723,1465;71,6929;50,26552475;10,95335749;1,35000002
25,827006;1,7712;-1,9598;3,1952;20506,3848;71,6929;50,26552475;10,95335749;1,35000002
25,857392;1,7712;-1,9598;3,1952;20506,3848;71,6929;50,26552475;10,95335749;1,35000002
25,861755;1,7712;-1,9598;3,1952;20506,3848;71,6929;50,26552475;10,95335749;1,35000002
25,864691;1,0586;-2,1615;1,4835;20506,3848;71,6929;50,26552475;10,95335749;1,35000002
25,924382;1,0586;-2,1615;1,4835;20506,3848;71,6929;50,26552475;10,95335749;1,35000002
25,930223;1,0586;-2,1615;1,4835;20506,3848;71,6929;50,26552475;10,95335749;1,35000002
25,933096;-0,2238;-0,6347;-2,5922;20506,3848;71,6929;50,26552475;10,95335749;1,35000002
25,937032;-0,2238;-0,6347;-2,5922;21092,7891;71,6929;50,26552475;10,95335749;1,35000002
25,99118;-0,2238;-0,6347;-2,5922;21092,7891;69,6557;50,26552475;10,95335749;1,35000002
25,995177;-0,2238;-0,6347;-2,5922;21092,7891;69,6557;50,26552475;10,95335749;1,35000002
25,99795;-0,3564;0,1253;-5,3755;21092,7891;69,6557;50,26552475;10,95335749;1,35000002
26,031066;-0,3564;0,1253;-5,3755;21592,9258;69,6557;50,26552475;10,95335749;1,35000002
26,05394;-0,3564;0,1253;-5,3755;21592,9258;69,6557;50,26552475;10,95335749;1,35000002
26,057757;-0,3564;0,1253;-5,3755;21592,9258;69,6557;50,26552475;10,95335749;1,35000002
26,060369;-0,8684;0,4482;-4,0556;21592,9258;69,6557;50,26552475;10,95335749;1,35000002
26,11977;-0,5305;1,369;-2,5008;21592,9258;69,6557;50,26552475;10,95335749;1,35000002
26,124364;-0,5305;1,369;-2,5008;21592,9258;69,6557;50,26552475;10,95335749;1,35000002
26,127082;-0,5305;1,369;-2,5008;21592,9258;69,6557;50,26552475;10,95335749;1,35000002
26,183195;-0,5305;1,369;-2,5008;21592,9258;69,6557;50,26552475;10,95335749;1,35000002
26,185229;-0,5305;1,369;-2,5008;21592,9258;69,6557;50,26552475;10,95335749;1,35000002
26,186682;-1,303;1,6225;2,3425;21592,9258;69,6557;50,26552475;10,95335749;1,35000002
26,236379;-1,303;1,6225;2,3425;21067,127;69,6557;50,26552475;10,95335749;1,35000002
26,276986;-1,303;1,6225;2,3425;21067,127;68,4355;50,26552475;10,95335749;1,35000002
26,279635;-1,303;1,6225;2,3425;21067,127;68,4355;50,26552475;10,95335749;1,35000002
26,281067;-0,1869;2,2031;4,3004;21067,127;68,4355;50,26552475;10,95335749;1,35000002
26,338645;-0,1869;2,2031;4,3004;20711,1348;68,4355;50,26552475;10,95335749;1,35000002
26,343099;-0,1869;2,2031;4,3004;20711,1348;68,4355;50,26552475;10,95335749;1,35000002
26,346091;1,627;1,4089;3,0556;20711,1348;68,4355;50,26552475;10,95335749;1,35000002
26,349447;1,627;1,4089;3,0556;20711,1348;68,4355;50,26552475;10,95335749;1,35000002
26,40806;1,627;1,4089;3,0556;20711,1348;68,4355;50,26552475;10,95335749;1,35000002
26,411713;1,627;1,4089;3,0556;20711,1348;68,4355;50,26552475;10,95335749;1,35000002
26,414178;0,1424;-1,5483;4,1577;20711,1348;68,4355;50,26552475;10,95335749;1,35000002
26,440776;0,1424;-1,5483;4,1577;21085,6914;68,4355;50,26552475;10,95335749;1,35000002
26,475603;0,1424;-1,5483;4,1577;21085,6914;68,4355;50,26552475;10,95335749;1,35000002
26,478315;-0,9053;-2,0323;1,501;21085,6914;68,4355;50,26552475;10,95335749;1,35000002
26,480635;-0,9053;-2,0323;1,501;21085,6914;68,4355;50,26552475;10,95335749;1,35000002
26,53862;-0,9053;-2,0323;1,501;21085,6914;68,4355;50,26552475;10,95335749;1,35000002
26,540597;-0,9053;-2,0323;1,501;21085,6914;68,4355;50,26553112;10,95334189;1,34000003
26,542241;0,0158;-1,058;-2,3164;21085,6914;68,4355;50,26553112;10,95334189;1,34000003
26,544093;0,0158;-1,058;-2,3164;21780,2051;68,4355;50,26553112;10,95334189;1,34000003
26,606191;0,0158;-1,058;-2,3164;21780,2051;72,1592;50,26553112;10,95334189;1,34000003
26,610945;0,0158;-1,058;-2,3164;21780,2051;72,1592;50,26553112;10,95334189;1,34000003
26,614;-0,1008;-0,5666;-4,3888;21780,2051;72,1592;50,26553112;10,95334189;1,34000003
26,646523;-0,1008;-0,5666;-4,3888;22466,5273;72,1592;50,26553112;10,95334189;1,34000003
26,670543;-0,1008;-0,5666;-4,3888;22466,5273;72,1592;50,26553112;10,95334189;1,34000003
26,672184;-0,1008;-0,5666;-4,3888;22466,5273;72,1592;50,26553112;10,95334189;1,34000003
26,673155;-1,0501;0,1265;-4,1903;22466,5273;72,1592;50,26553112;10,95334189;1,34000003
26,736647;-1,0501;0,1265;-4,1903;22466,5273;72,1592;50,26553112;10,95334189;1,34000003
26,741293;-1,0501;0,1265;-4,1903;22466,5273;72,1592;50,26553112;10,95334189;1,34000003
26,745028;-0,6124;0,5193;-2,3283;22466,5273;72,1592;50,26553112;10,95334189;1,34000003
26,7521;-0,6124;0,5193;-2,3283;22915,3398;72,1592;50,26553112;10,95334189;1,34000003
26,799606;-0,6124;0,5193;-2,3283;22915,3398;72,1592;50,26553112;10,95334189;1,34000003
26,802544;-0,6124;0,5193;-2,3283;22915,3398;72,1592;50,26553112;10,95334189;1,34000003
26,804984;-0,5302;0,2039;2,3545;22915,3398;72,1592;50,26553112;10,95334189;1,34000003
26,849231;-0,5302;0,2039;2,3545;23343,9492;72,1592;50,26553112;10,95334189;1,34000003
26,867609;1,6616;0,0521;2,8914;23343,9492;74,4421;50,26553112;10,95334189;1,34000003
26,872772;1,6616;0,0521;2,8914;23343,9492;74,4421;50,26553112;10,95334189;1,34000003
26,875815;1,6616;0,0521;2,8914;23343,9492;74,4421;50,26553112;10,95334189;1,34000003
26,931834;1,6616;0,0521;2,8914;23343,9492;74,4421;50,26553112;10,95334189;1,34000003
26,935363;1,6616;0,0521;2,8914;23343,9492;74,4421;50,26553112;10,95334189;1,34000003
26,93824;2,6816;-0,39;2,3599;23343,9492;74,4421;50,26553112;10,95334189;1,34000003
26,951443;2,6816;-0,39;2,3599;23630,5996;74,4421;50,26553112;10,95334189;1,34000003
26,969145;2,6816;-0,39;2,3599;23630,5996;74,4421;50,26553112;10,95334189;1,34000003
26,972901;2,6816;-0,39;2,3599;23630,5996;74,4421;50,26553112;10,95334189;1,34000003
26,975662;1,1411;-1,6615;3,3815;23630,5996;74,4421;50,26553112;10,95334189;1,34000003
27,034768;1,1411;-1,6615;3,3815;23630,5996;74,4421;50,26553112;10,95334189;1,34000003
27,03879;1,1411;-1,6615;3,3815;23630,5996;74,4421;50,26553112;10,95334189;1,34000003
27,042516;1,9989;-0,7319;-0,8188;23630,5996;74,4421;50,26553112;10,95334189;1,34000003
27,10032;1,9989;-0,7319;-0,8188;23630,5996;74,4421;50,26553112;10,95334189;1,34000003
27,10442;1,9989;-0,7319;-0,8188;23630,5996;74,4421;50,26553112;10,95334189;1,34000003
27,107854;0,5075;-0,1343;-2,8337;23630,5996;74,4421;50,26553112;10,95334189;1,34000003
27,156201;0,5075;-0,1343;-2,8337;22909,332;74,4421;50,26553112;10,95334189;1,34000003
27,165366;0,5075;-0,1343;-2,8337;22909,332;70,859;50,26553112;10,95334189;1,34000003
27,168901;0,5075;-0,1343;-2,8337;22909,332;70,859;50,26553112;10,95334189;1,34000003
27,172036;-0,3095;-0,1658;-3,988;22909,332;70,859;50,26553112;10,95334189;1,34000003
27,231623;-0,3095;-0,1658;-3,988;22909,332;70,859;50,26553112;10,95334189;1,34000003
27,235233;-0,3095;-0,1658;-3,988;22909,332;70,859;50,26553112;10,95334189;1,34000003
27,237846;-1,1506;0,8269;-4,2214;22909,332;70,859;50,26553112;10,95334189;1,34000003
27,258761;-1,1506;0,8269;-4,2214;22217,0039;70,859;50,26553112;10,95334189;1,34000003
27,29549;-1,1506;0,8269;-4,2214;22217,0039;70,859;50,26553112;10,95334189;1,34000003
27,299622;-1,1506;0,8269;-4,2214;22217,0039;70,859;50,26553112;10,95334189;1,34000003
27,30224;-0,5974;1,5805;-0,5788;22217,0039;70,859;50,26553112;10,95334189;1,34000003
27,362723;-0,5974;1,5805;-0,5788;21699,9414;70,859;50,26553112;10,95334189;1,34000003
27,367207;-0,5974;1,5805;-0,5788;21699,9414;70,859;50,26553112;10,95334189;1,34000003
27,370051;-0,5974;1,5805;-0,5788;21699,9414;70,859;50,26553112;10,95334189;1,34000003
27,372482;-2,0058;1,6995;3,3651;21699,9414;70,859;50,26553112;10,95334189;1,34000003
27,427069;-2,0058;1,6995;3,3651;21699,9414;70,859;50,26553112;10,95334189;1,34000003
27,430784;-2,0058;1,6995;3,3651;21699,9414;70,859;50,26553112;10,95334189;1,34000003
27,433278;0,3713;1,4617;4,8677;21699,9414;70,859;50,26553112;10,95334189;1,34000003
27,462699;0,3713;1,4617;4,8677;21468,4375;72,4027;50,26553112;10,95334189;1,34000003
27,470445;0,3713;1,4617;4,8677;21468,4375;72,4027;50,26553112;10,95334189;1,34000003
27,539076;0,3713;1,4617;4,8677;21468,4375;72,4027;50,26553112;10,95334189;1,34000003
27,542713;0,3713;1,4617;4,8677;21468,4375;72,4027;50,26553672;10,95332712;1,29999995
27,546151;0,1409;-0,9618;5,3866;21468,4375;72,4027;50,26553672;10,95332712;1,29999995
27,594414;0,1409;-0,9618;5,3866;21468,4375;72,4027;50,26553672;10,95332712;1,29999995
27,597033;0,1409;-0,9618;5,3866;21468,4375;72,4027;50,26553672;10,95332712;1,29999995
27,599974;-0,8823;-2,2714;1,455;21468,4375;72,4027;50,26553672;10,95332712;1,29999995
27,660283;-0,8823;-2,2714;1,455;21468,4375;72,4027;50,26553672;10,95332712;1,29999995
27,664195;-0,8823;-2,2714;1,455;21468,4375;72,4027;50,26553672;10,95332712;1,29999995
27,667729;-0,3145;-1,4395;-2,45;21468,4375;72,4027;50,26553672;10,95332712;1,29999995
27,671959;-0,3145;-1,4395;-2,45;22025,3574;72,4027;50,26553672;10,95332712;1,29999995
27,727076;-0,3145;-1,4395;-2,45;22025,3574;72,4027;50,26553672;10,95332712;1,29999995
27,731989;-0,3145;-1,4395;-2,45;22025,3574;72,4027;50,26553672;10,95332712;1,29999995
27,735608;-0,7259;-0,8882;-3,9421;22025,3574;72,4027;50,26553672;10,95332712;1,29999995
